# top line  : fill_value    column number density n_column (molec/cm2)
# next lines: wavenumber nu (cm-1)    optical thickness tau_abs(nu)
 -999.000  2.892114e+22
13006.000  1.202659e-05
13006.020  1.161502e-05
13006.040  1.127554e-05
13006.060  1.099565e-05
13006.080  1.076614e-05
13006.100  1.058027e-05
13006.120  1.043340e-05
13006.140  1.032272e-05
13006.160  1.024732e-05
13006.180  1.020850e-05
13006.200  1.021067e-05
13006.220  1.026321e-05
13006.240  1.038450e-05
13006.260  1.061122e-05
13006.280  1.102166e-05
13006.300  1.180165e-05
13006.320  1.344352e-05
13006.340  1.712968e-05
13006.360  2.306162e-05
13006.380  2.447859e-05
13006.400  1.949399e-05
13006.420  1.519243e-05
13006.440  1.337455e-05
13006.460  1.273138e-05
13006.480  1.261979e-05
13006.500  1.282114e-05
13006.520  1.327630e-05
13006.540  1.400390e-05
13006.560  1.508519e-05
13006.580  1.668565e-05
13006.600  1.912067e-05
13006.620  2.301373e-05
13006.640  2.970529e-05
13006.660  4.231423e-05
13006.680  6.809395e-05
13006.700  1.162458e-04
13006.720  1.619979e-04
13006.740  1.434537e-04
13006.760  8.910559e-05
13006.780  5.287349e-05
13006.800  3.512006e-05
13006.820  2.615914e-05
13006.840  2.119080e-05
13006.860  1.820249e-05
13006.880  1.629202e-05
13006.900  1.501591e-05
13006.920  1.413791e-05
13006.940  1.352367e-05
13006.960  1.309255e-05
13006.980  1.279479e-05
13007.000  1.259794e-05
13007.020  1.248105e-05
13007.040  1.243051e-05
13007.060  1.243786e-05
13007.080  1.249851e-05
13007.100  1.261064e-05
13007.120  1.277550e-05
13007.140  1.299701e-05
13007.160  1.328224e-05
13007.180  1.364208e-05
13007.200  1.409251e-05
13007.220  1.465667e-05
13007.240  1.536809e-05
13007.260  1.627662e-05
13007.280  1.745636e-05
13007.300  1.902399e-05
13007.320  2.116840e-05
13007.340  2.421154e-05
13007.360  2.873609e-05
13007.380  3.587701e-05
13007.400  4.804429e-05
13007.420  7.079896e-05
13007.440  1.166483e-04
13007.460  1.992184e-04
13007.480  2.716607e-04
13007.500  2.360619e-04
13007.520  1.465368e-04
13007.540  8.783522e-05
13007.560  5.943598e-05
13007.580  4.606980e-05
13007.600  4.049267e-05
13007.620  4.059218e-05
13007.640  4.782905e-05
13007.660  6.782003e-05
13007.680  1.006670e-04
13007.700  1.108275e-04
13007.720  8.023469e-05
13007.740  5.002829e-05
13007.760  3.443517e-05
13007.780  2.687497e-05
13007.800  2.283774e-05
13007.820  2.046811e-05
13007.840  1.898201e-05
13007.860  1.801321e-05
13007.880  1.737514e-05
13007.900  1.696768e-05
13007.920  1.673775e-05
13007.940  1.666322e-05
13007.960  1.675078e-05
13007.980  1.704840e-05
13008.000  1.769359e-05
13008.020  1.907089e-05
13008.040  2.223784e-05
13008.060  2.834007e-05
13008.080  3.210148e-05
13008.100  2.781371e-05
13008.120  2.334827e-05
13008.140  2.215274e-05
13008.160  2.320065e-05
13008.180  2.662439e-05
13008.200  3.502897e-05
13008.220  5.231232e-05
13008.240  7.207079e-05
13008.260  6.683053e-05
13008.280  4.639009e-05
13008.300  3.463379e-05
13008.320  3.172832e-05
13008.340  3.566438e-05
13008.360  4.575163e-05
13008.380  4.941273e-05
13008.400  3.899952e-05
13008.420  2.933956e-05
13008.440  2.487143e-05
13008.460  2.297781e-05
13008.480  2.217026e-05
13008.500  2.189382e-05
13008.520  2.193135e-05
13008.540  2.219540e-05
13008.560  2.265903e-05
13008.580  2.333480e-05
13008.600  2.427382e-05
13008.620  2.558299e-05
13008.640  2.747193e-05
13008.660  3.037141e-05
13008.680  3.525851e-05
13008.700  4.461009e-05
13008.720  6.450176e-05
13008.740  9.899318e-05
13008.760  1.164281e-04
13008.780  9.283190e-05
13008.800  7.153416e-05
13008.820  7.050545e-05
13008.840  8.960691e-05
13008.860  1.351334e-04
13008.880  1.873728e-04
13008.900  1.773005e-04
13008.920  1.190206e-04
13008.940  7.639693e-05
13008.960  5.528389e-05
13008.980  4.482737e-05
13009.000  3.920243e-05
13009.020  3.596011e-05
13009.040  3.401218e-05
13009.060  3.282767e-05
13009.080  3.212499e-05
13009.100  3.174423e-05
13009.120  3.158919e-05
13009.140  3.160010e-05
13009.160  3.173742e-05
13009.180  3.197489e-05
13009.200  3.229453e-05
13009.220  3.268384e-05
13009.240  3.313406e-05
13009.260  3.363906e-05
13009.280  3.419317e-05
13009.300  3.479650e-05
13009.320  3.544588e-05
13009.340  3.614043e-05
13009.360  3.688003e-05
13009.380  3.766514e-05
13009.400  3.849675e-05
13009.420  3.937641e-05
13009.440  4.030615e-05
13009.460  4.128854e-05
13009.480  4.232674e-05
13009.500  4.342459e-05
13009.520  4.458671e-05
13009.540  4.581871e-05
13009.560  4.712746e-05
13009.580  4.852151e-05
13009.600  5.001169e-05
13009.620  5.161203e-05
13009.640  5.334133e-05
13009.660  5.522575e-05
13009.680  5.730249e-05
13009.700  5.962819e-05
13009.720  6.229297e-05
13009.740  6.544971e-05
13009.760  6.937829e-05
13009.780  7.463888e-05
13009.800  8.247590e-05
13009.820  9.591893e-05
13009.840  1.216624e-04
13009.860  1.622164e-04
13009.880  1.837016e-04
13009.900  1.634078e-04
13009.920  1.422322e-04
13009.940  1.273110e-04
13009.960  1.142538e-04
13009.980  1.084389e-04
13010.000  1.078278e-04
13010.020  1.097738e-04
13010.040  1.131416e-04
13010.060  1.174790e-04
13010.080  1.225998e-04
13010.100  1.284362e-04
13010.120  1.349824e-04
13010.140  1.422725e-04
13010.160  1.503709e-04
13010.180  1.593744e-04
13010.200  1.694199e-04
13010.220  1.807109e-04
13010.240  1.935898e-04
13010.260  2.087622e-04
13010.280  2.277900e-04
13010.300  2.514608e-04
13010.320  2.726884e-04
13010.340  2.892262e-04
13010.360  3.108794e-04
13010.380  3.408874e-04
13010.400  3.813511e-04
13010.420  4.376866e-04
13010.440  5.038300e-04
13010.460  5.538561e-04
13010.480  6.059587e-04
13010.500  6.943057e-04
13010.520  8.005096e-04
13010.540  8.872928e-04
13010.560  9.963792e-04
13010.580  1.162923e-03
13010.600  1.381102e-03
13010.620  1.664248e-03
13010.640  2.064288e-03
13010.660  2.648435e-03
13010.680  3.532210e-03
13010.700  4.948538e-03
13010.720  7.408100e-03
13010.740  1.215643e-02
13010.760  2.237889e-02
13010.780  4.316949e-02
13010.800  6.455861e-02
13010.820  5.585411e-02
13010.840  3.129674e-02
13010.860  1.625244e-02
13010.880  9.361227e-03
13010.900  5.995074e-03
13010.920  4.150290e-03
13010.940  3.039915e-03
13010.960  2.322512e-03
13010.980  1.833184e-03
13011.000  1.484939e-03
13011.020  1.228517e-03
13011.040  1.034314e-03
13011.060  8.839165e-04
13011.080  7.650870e-04
13011.100  6.696279e-04
13011.120  5.918395e-04
13011.140  5.276603e-04
13011.160  4.741339e-04
13011.180  4.290669e-04
13011.200  3.908051e-04
13011.220  3.580820e-04
13011.240  3.299149e-04
13011.260  3.055322e-04
13011.280  2.843198e-04
13011.300  2.657906e-04
13011.320  2.495459e-04
13011.340  2.352625e-04
13011.360  2.226753e-04
13011.380  2.115654e-04
13011.400  2.017514e-04
13011.420  1.930822e-04
13011.440  1.854320e-04
13011.460  1.786959e-04
13011.480  1.727873e-04
13011.500  1.676353e-04
13011.520  1.631845e-04
13011.540  1.593954e-04
13011.560  1.562484e-04
13011.580  1.537548e-04
13011.600  1.519851e-04
13011.620  1.511505e-04
13011.640  1.518506e-04
13011.660  1.556252e-04
13011.680  1.633812e-04
13011.700  1.666584e-04
13011.720  1.598214e-04
13011.740  1.537483e-04
13011.760  1.517799e-04
13011.780  1.520537e-04
13011.800  1.535240e-04
13011.820  1.558181e-04
13011.840  1.588069e-04
13011.860  1.624552e-04
13011.880  1.667710e-04
13011.900  1.717875e-04
13011.920  1.775562e-04
13011.940  1.841448e-04
13011.960  1.916375e-04
13011.980  2.001365e-04
13012.000  2.097653e-04
13012.020  2.206720e-04
13012.040  2.330346e-04
13012.060  2.470682e-04
13012.080  2.630334e-04
13012.100  2.812477e-04
13012.120  3.021010e-04
13012.140  3.260758e-04
13012.160  3.537735e-04
13012.180  3.859523e-04
13012.200  4.235773e-04
13012.220  4.678925e-04
13012.240  5.205218e-04
13012.260  5.836180e-04
13012.280  6.600815e-04
13012.300  7.538951e-04
13012.320  8.706451e-04
13012.340  1.018360e-03
13012.360  1.209016e-03
13012.380  1.460612e-03
13012.400  1.802050e-03
13012.420  2.281334e-03
13012.440  2.983030e-03
13012.460  4.066872e-03
13012.480  5.861814e-03
13012.500  9.119130e-03
13012.520  1.571983e-02
13012.540  2.988155e-02
13012.560  5.263166e-02
13012.580  6.092760e-02
13012.600  4.143245e-02
13012.620  2.182975e-02
13012.640  1.194745e-02
13012.660  7.299700e-03
13012.680  4.879543e-03
13012.700  3.481852e-03
13012.720  2.606956e-03
13012.740  2.024604e-03
13012.760  1.618018e-03
13012.780  1.323160e-03
13012.800  1.102628e-03
13012.820  9.333740e-04
13012.840  8.007551e-04
13012.860  6.948762e-04
13012.880  6.090062e-04
13012.900  5.384055e-04
13012.920  4.796613e-04
13012.940  4.302705e-04
13012.960  3.883772e-04
13012.980  3.526130e-04
13013.000  3.219274e-04
13013.020  2.951447e-04
13013.040  2.712797e-04
13013.060  2.502206e-04
13013.080  2.317179e-04
13013.100  2.153390e-04
13013.120  2.007413e-04
13013.140  1.876643e-04
13013.160  1.758989e-04
13013.180  1.652732e-04
13013.200  1.556432e-04
13013.220  1.468875e-04
13013.240  1.389028e-04
13013.260  1.316008e-04
13013.280  1.249058e-04
13013.300  1.187521e-04
13013.320  1.130831e-04
13013.340  1.078494e-04
13013.360  1.030078e-04
13013.380  9.852057e-05
13013.400  9.435458e-05
13013.420  9.048064e-05
13013.440  8.687302e-05
13013.460  8.350986e-05
13013.480  8.036791e-05
13013.500  7.743359e-05
13013.520  7.468984e-05
13013.540  7.212322e-05
13013.560  6.972219e-05
13013.580  6.747708e-05
13013.600  6.538015e-05
13013.620  6.342577e-05
13013.640  6.161075e-05
13013.660  5.993494e-05
13013.680  5.840229e-05
13013.700  5.702259e-05
13013.720  5.581471e-05
13013.740  5.479370e-05
13013.760  5.405273e-05
13013.780  5.367675e-05
13013.800  5.385710e-05
13013.820  5.497592e-05
13013.840  5.787207e-05
13013.860  6.461763e-05
13013.880  8.079459e-05
13013.900  1.174824e-04
13013.920  1.616970e-04
13013.940  1.481094e-04
13013.960  9.859257e-05
13013.980  6.836463e-05
13014.000  5.460710e-05
13014.020  4.766416e-05
13014.040  4.358901e-05
13014.060  4.088930e-05
13014.080  3.893191e-05
13014.100  3.741597e-05
13014.120  3.618565e-05
13014.140  3.515597e-05
13014.160  3.428118e-05
13014.180  3.354293e-05
13014.200  3.294983e-05
13014.220  3.255426e-05
13014.240  3.249145e-05
13014.260  3.295737e-05
13014.280  3.362696e-05
13014.300  3.312264e-05
13014.320  3.138142e-05
13014.340  2.978465e-05
13014.360  2.870249e-05
13014.380  2.793350e-05
13014.400  2.732491e-05
13014.420  2.680483e-05
13014.440  2.633961e-05
13014.460  2.591220e-05
13014.480  2.551316e-05
13014.500  2.513689e-05
13014.520  2.477976e-05
13014.540  2.443938e-05
13014.560  2.411398e-05
13014.580  2.380230e-05
13014.600  2.350335e-05
13014.620  2.321635e-05
13014.640  2.294072e-05
13014.660  2.267598e-05
13014.680  2.242176e-05
13014.700  2.217781e-05
13014.720  2.194394e-05
13014.740  2.172011e-05
13014.760  2.150637e-05
13014.780  2.130289e-05
13014.800  2.111006e-05
13014.820  2.092844e-05
13014.840  2.075892e-05
13014.860  2.060279e-05
13014.880  2.046194e-05
13014.900  2.033933e-05
13014.920  2.023869e-05
13014.940  2.016650e-05
13014.960  2.013244e-05
13014.980  2.015242e-05
13015.000  2.025345e-05
13015.020  2.048442e-05
13015.040  2.094070e-05
13015.060  2.182680e-05
13015.080  2.363260e-05
13015.100  2.761969e-05
13015.120  3.618736e-05
13015.140  4.680093e-05
13015.160  4.506999e-05
13015.180  3.370840e-05
13015.200  2.599473e-05
13015.220  2.239422e-05
13015.240  2.062693e-05
13015.260  1.964627e-05
13015.280  1.904333e-05
13015.300  1.864568e-05
13015.320  1.837179e-05
13015.340  1.818028e-05
13015.360  1.804937e-05
13015.380  1.796791e-05
13015.400  1.793143e-05
13015.420  1.794022e-05
13015.440  1.799899e-05
13015.460  1.810032e-05
13015.480  1.829500e-05
13015.500  1.859214e-05
13015.520  1.903287e-05
13015.540  1.969303e-05
13015.560  2.069718e-05
13015.580  2.228257e-05
13015.600  2.493377e-05
13015.620  2.975323e-05
13015.640  3.957446e-05
13015.660  6.186247e-05
13015.680  1.055474e-04
13015.700  1.355609e-04
13015.720  1.023665e-04
13015.740  5.965981e-05
13015.760  3.836576e-05
13015.780  2.888273e-05
13015.800  2.413209e-05
13015.820  2.144818e-05
13015.840  1.978629e-05
13015.860  1.868359e-05
13015.880  1.791176e-05
13015.900  1.734814e-05
13015.920  1.692222e-05
13015.940  1.659106e-05
13015.960  1.632764e-05
13015.980  1.611387e-05
13016.000  1.593750e-05
13016.020  1.578997e-05
13016.040  1.566513e-05
13016.060  1.555847e-05
13016.080  1.546664e-05
13016.100  1.538708e-05
13016.120  1.531785e-05
13016.140  1.586058e-05
13016.160  1.580870e-05
13016.180  1.576347e-05
13016.200  1.572412e-05
13016.220  1.569004e-05
13016.240  1.566072e-05
13016.260  1.563577e-05
13016.280  1.561484e-05
13016.300  1.559768e-05
13016.320  1.558408e-05
13016.340  1.557388e-05
13016.360  1.556694e-05
13016.380  1.556320e-05
13016.400  1.556259e-05
13016.420  1.556512e-05
13016.440  1.557081e-05
13016.460  1.557973e-05
13016.480  1.559201e-05
13016.500  1.560783e-05
13016.520  1.562743e-05
13016.540  1.565115e-05
13016.560  1.567946e-05
13016.580  1.571297e-05
13016.600  1.575251e-05
13016.620  1.579919e-05
13016.640  1.585456e-05
13016.660  1.592078e-05
13016.680  1.600092e-05
13016.700  1.609948e-05
13016.720  1.622350e-05
13016.740  1.638312e-05
13016.760  1.659584e-05
13016.780  1.689128e-05
13016.800  1.732360e-05
13016.820  1.799978e-05
13016.840  1.915259e-05
13016.860  2.134488e-05
13016.880  2.598125e-05
13016.900  3.510638e-05
13016.920  4.386986e-05
13016.940  3.963394e-05
13016.960  2.929358e-05
13016.980  2.305026e-05
13017.000  2.017379e-05
13017.020  1.877205e-05
13017.040  1.801835e-05
13017.060  1.758198e-05
13017.080  1.731751e-05
13017.100  1.715402e-05
13017.120  1.705385e-05
13017.140  1.699560e-05
13017.160  1.696634e-05
13017.180  1.695801e-05
13017.200  1.696525e-05
13017.220  1.698448e-05
13017.240  1.701319e-05
13017.260  1.704961e-05
13017.280  1.709245e-05
13017.300  1.713911e-05
13017.320  1.719216e-05
13017.340  1.724942e-05
13017.360  1.731047e-05
13017.380  1.737499e-05
13017.400  1.744273e-05
13017.420  1.751349e-05
13017.440  1.758712e-05
13017.460  1.766350e-05
13017.480  1.774254e-05
13017.500  1.782417e-05
13017.520  1.790832e-05
13017.540  1.799497e-05
13017.560  1.808409e-05
13017.580  1.817565e-05
13017.600  1.826965e-05
13017.620  1.836609e-05
13017.640  1.846497e-05
13017.660  1.856630e-05
13017.680  1.867010e-05
13017.700  1.877640e-05
13017.720  1.888520e-05
13017.740  1.899652e-05
13017.760  1.911044e-05
13017.780  1.922698e-05
13017.800  1.934616e-05
13017.820  1.946804e-05
13017.840  1.959266e-05
13017.860  1.972007e-05
13017.880  1.985032e-05
13017.900  1.998346e-05
13017.920  2.011957e-05
13017.940  2.025869e-05
13017.960  2.095928e-05
13017.980  2.110555e-05
13018.000  2.125506e-05
13018.020  2.140789e-05
13018.040  2.156411e-05
13018.060  2.172383e-05
13018.080  2.188714e-05
13018.100  2.205517e-05
13018.120  2.222597e-05
13018.140  2.240068e-05
13018.160  2.257943e-05
13018.180  2.276235e-05
13018.200  2.294959e-05
13018.220  2.314129e-05
13018.240  2.333764e-05
13018.260  2.353879e-05
13018.280  2.374496e-05
13018.300  2.395638e-05
13018.320  2.417325e-05
13018.340  2.439586e-05
13018.360  2.462450e-05
13018.380  2.485949e-05
13018.400  2.510121e-05
13018.420  2.535008e-05
13018.440  2.560657e-05
13018.460  2.587123e-05
13018.480  2.614469e-05
13018.500  2.642771e-05
13018.520  2.672116e-05
13018.540  2.702608e-05
13018.560  2.734374e-05
13018.580  2.767565e-05
13018.600  2.802371e-05
13018.620  2.839027e-05
13018.640  2.877827e-05
13018.660  2.919153e-05
13018.680  2.963498e-05
13018.700  3.011518e-05
13018.720  3.064099e-05
13018.740  3.122459e-05
13018.760  3.188325e-05
13018.780  3.264200e-05
13018.800  3.353869e-05
13018.820  3.463121e-05
13018.840  3.601444e-05
13018.860  3.785024e-05
13018.880  4.043338e-05
13018.900  4.434478e-05
13018.920  5.084651e-05
13018.940  6.300512e-05
13018.960  8.870166e-05
13018.980  1.412287e-04
13019.000  1.970743e-04
13019.020  1.761555e-04
13019.040  1.139994e-04
13019.060  7.638278e-05
13019.080  5.947771e-05
13019.100  5.147651e-05
13019.120  4.732407e-05
13019.140  4.503756e-05
13019.160  4.375647e-05
13019.180  4.306531e-05
13019.200  4.274509e-05
13019.220  4.267206e-05
13019.240  4.277212e-05
13019.260  4.299937e-05
13019.280  4.332361e-05
13019.300  4.372484e-05
13019.320  4.418937e-05
13019.340  4.470773e-05
13019.360  4.527134e-05
13019.380  4.587929e-05
13019.400  4.652639e-05
13019.420  4.721037e-05
13019.440  4.792971e-05
13019.460  4.868349e-05
13019.480  4.947122e-05
13019.500  5.029287e-05
13019.520  5.114860e-05
13019.540  5.203890e-05
13019.560  5.296443e-05
13019.580  5.392634e-05
13019.600  5.492518e-05
13019.620  5.596244e-05
13019.640  5.703951e-05
13019.660  5.815796e-05
13019.680  5.931950e-05
13019.700  6.052603e-05
13019.720  6.177960e-05
13019.740  6.308246e-05
13019.760  6.443703e-05
13019.780  6.584595e-05
13019.800  6.731209e-05
13019.820  6.883855e-05
13019.840  7.042873e-05
13019.860  7.208630e-05
13019.880  7.381530e-05
13019.900  7.562015e-05
13019.920  7.750673e-05
13019.940  7.947853e-05
13019.960  8.154261e-05
13019.980  8.370593e-05
13020.000  8.597650e-05
13020.020  8.836373e-05
13020.040  9.087901e-05
13020.060  9.353661e-05
13020.080  9.635501e-05
13020.100  9.935975e-05
13020.120  1.025883e-04
13020.140  1.061002e-04
13020.160  1.099991e-04
13020.180  1.144859e-04
13020.200  1.200007e-04
13020.220  1.276323e-04
13020.240  1.400265e-04
13020.260  1.593980e-04
13020.280  1.727619e-04
13020.300  1.659468e-04
13020.320  1.567804e-04
13020.340  1.548395e-04
13020.360  1.572183e-04
13020.380  1.616367e-04
13020.400  1.672145e-04
13020.420  1.736220e-04
13020.440  1.807381e-04
13020.460  1.885315e-04
13020.480  1.970165e-04
13020.500  2.062354e-04
13020.520  2.162520e-04
13020.540  2.271497e-04
13020.560  2.390338e-04
13020.580  2.520363e-04
13020.600  2.663246e-04
13020.620  2.821196e-04
13020.640  2.997267e-04
13020.660  3.196008e-04
13020.680  3.424917e-04
13020.700  3.698066e-04
13020.720  4.046100e-04
13020.740  4.542477e-04
13020.760  5.311297e-04
13020.780  6.173451e-04
13020.800  6.400466e-04
13020.820  6.239655e-04
13020.840  6.340822e-04
13020.860  6.712650e-04
13020.880  7.257166e-04
13020.900  7.941067e-04
13020.920  8.766652e-04
13020.940  9.754351e-04
13020.960  1.093838e-03
13020.980  1.236791e-03
13021.000  1.411168e-03
13021.020  1.626614e-03
13021.040  1.896897e-03
13021.060  2.242323e-03
13021.080  2.692999e-03
13021.100  3.296424e-03
13021.120  4.129838e-03
13021.140  5.325827e-03
13021.160  7.126919e-03
13021.180  1.001311e-02
13021.200  1.503081e-02
13021.220  2.471425e-02
13021.240  4.535913e-02
13021.260  8.579027e-02
13021.280  1.237527e-01
13021.300  1.044348e-01
13021.320  5.869884e-02
13021.340  3.095416e-02
13021.360  1.804148e-02
13021.380  1.163957e-02
13021.400  8.096262e-03
13021.420  5.949438e-03
13021.440  4.555940e-03
13021.460  3.602195e-03
13021.480  2.921648e-03
13021.500  2.419499e-03
13021.520  2.038548e-03
13021.540  1.743110e-03
13021.560  1.509403e-03
13021.580  1.321465e-03
13021.600  1.168176e-03
13021.620  1.041602e-03
13021.640  9.359563e-04
13021.660  8.469448e-04
13021.680  7.713237e-04
13021.700  7.066076e-04
13021.720  6.508670e-04
13021.740  6.025859e-04
13021.760  5.605609e-04
13021.780  5.238275e-04
13021.800  4.916064e-04
13021.820  4.632641e-04
13021.840  4.382826e-04
13021.860  4.162381e-04
13021.880  3.967850e-04
13021.900  3.796465e-04
13021.920  3.646117e-04
13021.940  3.515444e-04
13021.960  3.404178e-04
13021.980  3.314161e-04
13022.000  3.252376e-04
13022.020  3.238756e-04
13022.040  3.302216e-04
13022.060  3.363187e-04
13022.080  3.241034e-04
13022.100  3.053894e-04
13022.120  2.938602e-04
13022.140  2.877797e-04
13022.160  2.844845e-04
13022.180  2.828634e-04
13022.200  2.824775e-04
13022.220  2.831393e-04
13022.240  2.847675e-04
13022.260  2.873329e-04
13022.280  2.908366e-04
13022.300  2.953005e-04
13022.320  3.007633e-04
13022.340  3.072791e-04
13022.360  3.149175e-04
13022.380  3.237643e-04
13022.400  3.339234e-04
13022.420  3.455196e-04
13022.440  3.587013e-04
13022.460  3.736452e-04
13022.480  3.905613e-04
13022.500  4.097000e-04
13022.520  4.313603e-04
13022.540  4.559008e-04
13022.560  4.837536e-04
13022.580  5.154424e-04
13022.600  5.516060e-04
13022.620  5.930290e-04
13022.640  6.406846e-04
13022.660  6.957843e-04
13022.680  7.598619e-04
13022.700  8.348725e-04
13022.720  9.233413e-04
13022.740  1.028574e-03
13022.760  1.154965e-03
13022.780  1.308451e-03
13022.800  1.497224e-03
13022.820  1.732811e-03
13022.840  2.031864e-03
13022.860  2.419370e-03
13022.880  2.933119e-03
13022.900  3.634280e-03
13022.920  4.625424e-03
13022.940  6.089367e-03
13022.960  8.376466e-03
13022.980  1.222121e-02
13023.000  1.933458e-02
13023.020  3.402761e-02
13023.040  6.511504e-02
13023.060  1.089191e-01
13023.080  1.138675e-01
13023.100  7.188742e-02
13023.120  3.756508e-02
13023.140  2.096805e-02
13023.160  1.304996e-02
13023.180  8.842399e-03
13023.200  6.372341e-03
13023.220  4.806823e-03
13023.240  3.754737e-03
13023.260  3.014622e-03
13023.280  2.474611e-03
13023.300  2.068557e-03
13023.320  1.755880e-03
13023.340  1.509903e-03
13023.360  1.312937e-03
13023.380  1.152794e-03
13023.400  1.020860e-03
13023.420  9.109385e-04
13023.440  8.185378e-04
13023.460  7.402956e-04
13023.480  6.730128e-04
13023.500  6.140639e-04
13023.520  5.626254e-04
13023.540  5.178216e-04
13023.560  4.785115e-04
13023.580  4.437837e-04
13023.600  4.129377e-04
13023.620  3.854146e-04
13023.640  3.607593e-04
13023.660  3.385965e-04
13023.680  3.186154e-04
13023.700  3.005576e-04
13023.720  2.842093e-04
13023.740  2.693948e-04
13023.760  2.559776e-04
13023.780  2.438542e-04
13023.800  2.329622e-04
13023.820  2.232916e-04
13023.840  2.149105e-04
13023.860  2.080205e-04
13023.880  2.030822e-04
13023.900  2.011240e-04
13023.920  2.045745e-04
13023.940  2.196696e-04
13023.960  2.615476e-04
13023.980  3.400984e-04
13024.000  3.756202e-04
13024.020  3.005680e-04
13024.040  2.199525e-04
13024.060  1.774466e-04
13024.080  1.555657e-04
13024.100  1.424156e-04
13024.120  1.333278e-04
13024.140  1.263924e-04
13024.160  1.207330e-04
13024.180  1.159018e-04
13024.200  1.116507e-04
13024.220  1.078304e-04
13024.240  1.043472e-04
13024.260  1.011370e-04
13024.280  9.815509e-05
13024.300  9.536891e-05
13024.320  9.275360e-05
13024.340  9.028978e-05
13024.360  8.796186e-05
13024.380  8.575704e-05
13024.400  8.366459e-05
13024.420  8.167536e-05
13024.440  7.978147e-05
13024.460  7.797600e-05
13024.480  7.625411e-05
13024.500  7.460788e-05
13024.520  7.303369e-05
13024.540  7.152716e-05
13024.560  7.008429e-05
13024.580  6.870147e-05
13024.600  6.737538e-05
13024.620  6.610300e-05
13024.640  6.488154e-05
13024.660  6.370843e-05
13024.680  6.258133e-05
13024.700  6.149805e-05
13024.720  6.045660e-05
13024.740  5.945514e-05
13024.760  5.849198e-05
13024.780  5.756560e-05
13024.800  5.667460e-05
13024.820  5.581772e-05
13024.840  5.499386e-05
13024.860  5.420208e-05
13024.880  5.344158e-05
13024.900  5.271177e-05
13024.920  5.201221e-05
13024.940  5.134285e-05
13024.960  5.066165e-05
13024.980  5.005362e-05
13025.000  4.947760e-05
13025.020  4.893542e-05
13025.040  4.842993e-05
13025.060  4.796544e-05
13025.080  4.754844e-05
13025.100  4.718899e-05
13025.120  4.690244e-05
13025.140  4.671374e-05
13025.160  4.666453e-05
13025.180  4.682818e-05
13025.200  4.734296e-05
13025.220  4.849233e-05
13025.240  5.091968e-05
13025.260  5.623181e-05
13025.280  6.812669e-05
13025.300  8.822161e-05
13025.320  9.678003e-05
13025.340  7.952117e-05
13025.360  6.115938e-05
13025.380  5.170167e-05
13025.400  4.716069e-05
13025.420  4.472814e-05
13025.440  4.327971e-05
13025.460  4.235528e-05
13025.480  4.174898e-05
13025.500  4.235823e-05
13025.520  4.215180e-05
13025.540  4.210996e-05
13025.560  4.224337e-05
13025.580  4.258681e-05
13025.600  4.320516e-05
13025.620  4.421338e-05
13025.640  4.581349e-05
13025.660  4.837711e-05
13025.680  5.263729e-05
13025.700  6.018081e-05
13025.720  7.484284e-05
13025.740  1.065044e-04
13025.760  1.728675e-04
13025.780  2.485107e-04
13025.800  2.267075e-04
13025.820  1.435853e-04
13025.840  9.096566e-05
13025.860  6.679581e-05
13025.880  5.498227e-05
13025.900  4.847390e-05
13025.920  4.451416e-05
13025.940  4.191406e-05
13025.960  4.010227e-05
13025.980  3.877859e-05
13026.000  3.777392e-05
13026.020  3.698607e-05
13026.040  3.635222e-05
13026.060  3.583053e-05
13026.080  3.539299e-05
13026.100  3.502011e-05
13026.120  3.469799e-05
13026.140  3.441651e-05
13026.160  3.416816e-05
13026.180  3.394725e-05
13026.200  3.374942e-05
13026.220  3.357128e-05
13026.240  3.341015e-05
13026.260  3.326391e-05
13026.280  3.313084e-05
13026.300  3.300955e-05
13026.320  3.289891e-05
13026.340  3.279797e-05
13026.360  3.270507e-05
13026.380  3.262136e-05
13026.400  3.254540e-05
13026.420  3.247675e-05
13026.440  3.241504e-05
13026.460  3.235998e-05
13026.480  3.231130e-05
13026.500  3.226884e-05
13026.520  3.223243e-05
13026.540  3.220200e-05
13026.560  3.217748e-05
13026.580  3.215889e-05
13026.600  3.214626e-05
13026.620  3.213972e-05
13026.640  3.213943e-05
13026.660  3.214566e-05
13026.680  3.215874e-05
13026.700  3.217917e-05
13026.720  3.216798e-05
13026.740  3.220523e-05
13026.760  3.225236e-05
13026.780  3.231085e-05
13026.800  3.238267e-05
13026.820  3.247053e-05
13026.840  3.257816e-05
13026.860  3.271088e-05
13026.880  3.287642e-05
13026.900  3.308640e-05
13026.920  3.335852e-05
13026.940  3.372161e-05
13026.960  3.422425e-05
13026.980  3.495373e-05
13027.000  3.607890e-05
13027.020  3.795760e-05
13027.040  4.143341e-05
13027.060  4.863575e-05
13027.080  6.362384e-05
13027.100  8.279502e-05
13027.120  8.171120e-05
13027.140  6.227146e-05
13027.160  4.817300e-05
13027.180  4.154453e-05
13027.200  3.839056e-05
13027.220  3.673288e-05
13027.240  3.578772e-05
13027.260  3.521970e-05
13027.280  3.486931e-05
13027.300  3.465351e-05
13027.320  3.452585e-05
13027.340  3.539633e-05
13027.360  3.537405e-05
13027.380  3.538395e-05
13027.400  3.541854e-05
13027.420  3.547266e-05
13027.440  3.554266e-05
13027.460  3.562591e-05
13027.480  3.572048e-05
13027.500  3.582491e-05
13027.520  3.593811e-05
13027.540  3.605927e-05
13027.560  3.618773e-05
13027.580  3.632300e-05
13027.600  3.646471e-05
13027.620  3.661257e-05
13027.640  3.676632e-05
13027.660  3.692582e-05
13027.680  3.709092e-05
13027.700  3.726155e-05
13027.720  3.743763e-05
13027.740  3.761913e-05
13027.760  3.780603e-05
13027.780  3.799835e-05
13027.800  3.819609e-05
13027.820  3.839930e-05
13027.840  3.860803e-05
13027.860  3.882233e-05
13027.880  3.904228e-05
13027.900  3.926798e-05
13027.920  3.949951e-05
13027.940  3.973698e-05
13027.960  3.998052e-05
13027.980  4.023027e-05
13028.000  4.048636e-05
13028.020  4.074896e-05
13028.040  4.101825e-05
13028.060  4.129441e-05
13028.080  4.157766e-05
13028.100  4.186822e-05
13028.120  4.216635e-05
13028.140  4.247233e-05
13028.160  4.278644e-05
13028.180  4.310904e-05
13028.200  4.344049e-05
13028.220  4.378120e-05
13028.240  4.413165e-05
13028.260  4.449235e-05
13028.280  4.486389e-05
13028.300  4.524694e-05
13028.320  4.564228e-05
13028.340  4.605079e-05
13028.360  4.647350e-05
13028.380  4.691162e-05
13028.400  4.736657e-05
13028.420  4.784005e-05
13028.440  4.833409e-05
13028.460  4.885020e-05
13028.480  4.939337e-05
13028.500  4.996639e-05
13028.520  5.057393e-05
13028.540  5.122217e-05
13028.560  5.191822e-05
13028.580  5.267354e-05
13028.600  5.350119e-05
13028.620  5.441980e-05
13028.640  5.545528e-05
13028.660  5.664503e-05
13028.680  5.804291e-05
13028.700  5.973102e-05
13028.720  6.183926e-05
13028.740  6.458132e-05
13028.760  6.832926e-05
13028.780  7.377603e-05
13028.800  8.232409e-05
13028.820  9.711320e-05
13028.840  1.259203e-04
13028.860  1.873701e-04
13028.880  2.965826e-04
13028.900  3.618123e-04
13028.920  2.806949e-04
13028.940  1.780391e-04
13028.960  1.243398e-04
13028.980  9.973073e-05
13029.000  8.750402e-05
13029.020  8.087849e-05
13029.040  7.708308e-05
13029.060  7.486105e-05
13029.080  7.358364e-05
13029.100  7.291009e-05
13029.120  7.264300e-05
13029.140  7.266336e-05
13029.160  7.289436e-05
13029.180  7.328586e-05
13029.200  7.380394e-05
13029.220  7.442507e-05
13029.240  7.513265e-05
13029.260  7.591479e-05
13029.280  7.676291e-05
13029.300  7.767080e-05
13029.320  7.863395e-05
13029.340  7.964916e-05
13029.360  8.071420e-05
13029.380  8.182760e-05
13029.400  8.298850e-05
13029.420  8.419651e-05
13029.440  8.545164e-05
13029.460  8.675423e-05
13029.480  8.810493e-05
13029.500  8.950463e-05
13029.520  9.095445e-05
13029.540  9.245571e-05
13029.560  9.400997e-05
13029.580  9.561893e-05
13029.600  9.728452e-05
13029.620  9.900885e-05
13029.640  1.007942e-04
13029.660  1.026431e-04
13029.680  1.045582e-04
13029.700  1.065424e-04
13029.720  1.085990e-04
13029.740  1.107313e-04
13029.760  1.129429e-04
13029.780  1.152379e-04
13029.800  1.176206e-04
13029.820  1.200956e-04
13029.840  1.226680e-04
13029.860  1.253434e-04
13029.880  1.281279e-04
13029.900  1.310282e-04
13029.920  1.340520e-04
13029.940  1.372078e-04
13029.960  1.405053e-04
13029.980  1.439561e-04
13030.000  1.475737e-04
13030.020  1.513748e-04
13030.040  1.553806e-04
13030.060  1.596193e-04
13030.080  1.641300e-04
13030.100  1.689709e-04
13030.120  1.742343e-04
13030.140  1.800798e-04
13030.160  1.868098e-04
13030.180  1.950629e-04
13030.200  2.063458e-04
13030.220  2.243012e-04
13030.240  2.539227e-04
13030.260  2.824989e-04
13030.280  2.784316e-04
13030.300  2.589005e-04
13030.320  2.499157e-04
13030.340  2.500844e-04
13030.360  2.546406e-04
13030.380  2.614596e-04
13030.400  2.697111e-04
13030.420  2.790653e-04
13030.440  2.894038e-04
13030.460  3.007141e-04
13030.480  3.130512e-04
13030.500  3.265276e-04
13030.520  3.413247e-04
13030.540  3.577276e-04
13030.560  3.761999e-04
13030.580  3.975564e-04
13030.600  4.233796e-04
13030.620  4.571352e-04
13030.640  5.073089e-04
13030.660  5.933734e-04
13030.680  7.244135e-04
13030.700  7.969729e-04
13030.720  7.363952e-04
13030.740  6.737434e-04
13030.760  6.605593e-04
13030.780  6.760529e-04
13030.800  7.061526e-04
13030.820  7.455886e-04
13030.840  7.926110e-04
13030.860  8.468966e-04
13030.880  9.088244e-04
13030.900  9.792223e-04
13030.920  1.059292e-03
13030.940  1.150620e-03
13030.960  1.255233e-03
13030.980  1.375707e-03
13031.000  1.515322e-03
13031.020  1.678289e-03
13031.040  1.870067e-03
13031.060  2.097828e-03
13031.080  2.371137e-03
13031.100  2.702967e-03
13031.120  3.111263e-03
13031.140  3.621401e-03
13031.160  4.270197e-03
13031.180  5.113180e-03
13031.200  6.234799e-03
13031.220  7.772654e-03
13031.240  9.959167e-03
13031.260  1.321188e-02
13031.280  1.833728e-02
13031.300  2.703423e-02
13031.320  4.322435e-02
13031.340  7.613836e-02
13031.360  1.394692e-01
13031.380  2.081478e-01
13031.400  1.939214e-01
13031.420  1.188213e-01
13031.440  6.455973e-02
13031.460  3.763555e-02
13031.480  2.413236e-02
13031.500  1.668099e-02
13031.520  1.219180e-02
13031.540  9.294116e-03
13031.560  7.320650e-03
13031.580  5.918455e-03
13031.600  4.887588e-03
13031.620  4.107955e-03
13031.640  3.504951e-03
13031.660  3.029045e-03
13031.680  2.647103e-03
13031.700  2.336117e-03
13031.720  2.079713e-03
13031.740  1.865986e-03
13031.760  1.686116e-03
13031.780  1.533456e-03
13031.800  1.402927e-03
13031.820  1.290591e-03
13031.840  1.193368e-03
13031.860  1.108818e-03
13031.880  1.035002e-03
13031.900  9.703718e-04
13031.920  9.137063e-04
13031.940  8.640738e-04
13031.960  8.208548e-04
13031.980  7.838747e-04
13032.000  7.538426e-04
13032.020  7.334829e-04
13032.040  7.273401e-04
13032.060  7.253762e-04
13032.080  6.961307e-04
13032.100  6.513926e-04
13032.120  6.179136e-04
13032.140  5.954158e-04
13032.160  5.789592e-04
13032.180  5.661736e-04
13032.200  5.560445e-04
13032.220  5.480857e-04
13032.240  5.420349e-04
13032.260  5.377380e-04
13032.280  5.351014e-04
13032.300  5.340702e-04
13032.320  5.346178e-04
13032.340  5.367395e-04
13032.360  5.404512e-04
13032.380  5.457871e-04
13032.400  5.528001e-04
13032.420  5.615624e-04
13032.440  5.721669e-04
13032.460  5.847285e-04
13032.480  5.993877e-04
13032.500  6.163124e-04
13032.520  6.357046e-04
13032.540  6.578026e-04
13032.560  6.828893e-04
13032.580  7.113002e-04
13032.600  7.434332e-04
13032.620  7.797612e-04
13032.640  8.208489e-04
13032.660  8.673723e-04
13032.680  9.201456e-04
13032.700  9.801541e-04
13032.720  1.048599e-03
13032.740  1.126954e-03
13032.760  1.217043e-03
13032.780  1.321143e-03
13032.800  1.442123e-03
13032.820  1.583641e-03
13032.840  1.750414e-03
13032.860  1.948608e-03
13032.880  2.186406e-03
13032.900  2.474850e-03
13032.920  2.829122e-03
13032.940  3.270555e-03
13032.960  3.829868e-03
13032.980  4.552980e-03
13033.000  5.509060e-03
13033.020  6.809467e-03
13033.040  8.639677e-03
13033.060  1.132735e-02
13033.080  1.549292e-02
13033.100  2.241485e-02
13033.120  3.499558e-02
13033.140  6.028207e-02
13033.160  1.122543e-01
13033.180  1.867156e-01
13033.200  2.029065e-01
13033.220  1.353802e-01
13033.240  7.298475e-02
13033.260  4.104451e-02
13033.280  2.553672e-02
13033.300  1.727077e-02
13033.320  1.242111e-02
13033.340  9.352574e-03
13033.360  7.294502e-03
13033.380  5.849465e-03
13033.400  4.796980e-03
13033.420  4.006881e-03
13033.440  3.399470e-03
13033.460  2.922454e-03
13033.480  2.541256e-03
13033.500  2.232155e-03
13033.520  1.978573e-03
13033.540  1.768735e-03
13033.560  1.593419e-03
13033.580  1.445172e-03
13033.600  1.320812e-03
13033.620  1.219783e-03
13033.640  1.144299e-03
13033.660  1.105098e-03
13033.680  1.127968e-03
13033.700  1.205450e-03
13033.720  1.173956e-03
13033.740  9.866723e-04
13033.760  8.219346e-04
13033.780  7.209748e-04
13033.800  6.542470e-04
13033.820  6.041679e-04
13033.840  5.633910e-04
13033.860  5.286089e-04
13033.880  4.981218e-04
13033.900  4.709433e-04
13033.920  4.464411e-04
13033.940  4.241750e-04
13033.960  4.038217e-04
13033.980  3.851295e-04
13034.000  3.678976e-04
13034.020  3.519611e-04
13034.040  3.371817e-04
13034.060  3.234419e-04
13034.080  3.106405e-04
13034.100  2.986897e-04
13034.120  2.875123e-04
13034.140  2.770407e-04
13034.160  2.672147e-04
13034.180  2.579809e-04
13034.200  2.492915e-04
13034.220  2.411037e-04
13034.240  2.333790e-04
13034.260  2.260826e-04
13034.280  2.191830e-04
13034.300  2.126518e-04
13034.320  2.064631e-04
13034.340  2.005932e-04
13034.360  1.950207e-04
13034.380  1.897259e-04
13034.400  1.846908e-04
13034.420  1.798989e-04
13034.440  1.753351e-04
13034.460  1.709856e-04
13034.480  1.684066e-04
13034.500  1.644506e-04
13034.520  1.606734e-04
13034.540  1.570651e-04
13034.560  1.536165e-04
13034.580  1.503191e-04
13034.600  1.471653e-04
13034.620  1.441479e-04
13034.640  1.412605e-04
13034.660  1.384972e-04
13034.680  1.358528e-04
13034.700  1.333227e-04
13034.720  1.309028e-04
13034.740  1.285899e-04
13034.760  1.263816e-04
13034.780  1.242761e-04
13034.800  1.222732e-04
13034.820  1.203739e-04
13034.840  1.185811e-04
13034.860  1.169007e-04
13034.880  1.153425e-04
13034.900  1.139224e-04
13034.920  1.126665e-04
13034.940  1.116155e-04
13034.960  1.108396e-04
13034.980  1.104608e-04
13035.000  1.107048e-04
13035.020  1.120210e-04
13035.040  1.153891e-04
13035.060  1.231249e-04
13035.080  1.403929e-04
13035.100  1.710739e-04
13035.120  1.912548e-04
13035.140  1.697469e-04
13035.160  1.369508e-04
13035.180  1.175039e-04
13035.200  1.077502e-04
13035.220  1.024827e-04
13035.240  9.937038e-05
13035.260  9.745052e-05
13035.280  9.631336e-05
13035.300  9.579917e-05
13035.320  9.588800e-05
13035.340  9.667475e-05
13035.360  9.839039e-05
13035.380  1.014858e-04
13035.400  1.068320e-04
13035.420  1.162087e-04
13035.440  1.335872e-04
13035.460  1.686751e-04
13035.480  2.441338e-04
13035.500  3.772753e-04
13035.520  4.573635e-04
13035.540  3.587530e-04
13035.560  2.291215e-04
13035.580  1.586834e-04
13035.600  1.251179e-04
13035.620  1.075697e-04
13035.640  9.732469e-05
13035.660  9.077960e-05
13035.680  8.629108e-05
13035.700  8.303411e-05
13035.720  8.056023e-05
13035.740  7.860882e-05
13035.760  7.702476e-05
13035.780  7.570023e-05
13035.800  7.457055e-05
13035.820  7.350021e-05
13035.840  7.263559e-05
13035.860  7.186377e-05
13035.880  7.116750e-05
13035.900  7.053385e-05
13035.920  6.995294e-05
13035.940  6.941709e-05
13035.960  6.892031e-05
13035.980  6.845778e-05
13036.000  6.802566e-05
13036.020  6.762079e-05
13036.040  6.724061e-05
13036.060  6.688297e-05
13036.080  6.654608e-05
13036.100  6.622844e-05
13036.120  6.592877e-05
13036.140  6.564600e-05
13036.160  6.537919e-05
13036.180  6.512755e-05
13036.200  6.489042e-05
13036.220  6.466719e-05
13036.240  6.445740e-05
13036.260  6.426061e-05
13036.280  6.407648e-05
13036.300  6.390473e-05
13036.320  6.374514e-05
13036.340  6.506516e-05
13036.360  6.493186e-05
13036.380  6.481047e-05
13036.400  6.470104e-05
13036.420  6.460371e-05
13036.440  6.451870e-05
13036.460  6.444637e-05
13036.480  6.438719e-05
13036.500  6.434182e-05
13036.520  6.431113e-05
13036.540  6.429627e-05
13036.560  6.429875e-05
13036.580  6.432058e-05
13036.600  6.436443e-05
13036.620  6.443386e-05
13036.640  6.453377e-05
13036.660  6.467096e-05
13036.680  6.485501e-05
13036.700  6.509982e-05
13036.720  6.542625e-05
13036.740  6.586598e-05
13036.760  6.647017e-05
13036.780  6.732460e-05
13036.800  6.858191e-05
13036.820  7.053356e-05
13036.840  7.378623e-05
13036.860  7.973156e-05
13036.880  9.175146e-05
13036.900  1.161424e-04
13036.920  1.483064e-04
13036.940  1.502748e-04
13036.960  1.190430e-04
13036.980  9.360283e-05
13037.000  8.098912e-05
13037.020  7.487527e-05
13037.040  7.163349e-05
13037.060  6.976768e-05
13037.080  6.863063e-05
13037.100  6.791380e-05
13037.120  6.745669e-05
13037.140  6.716956e-05
13037.160  6.699908e-05
13037.180  6.691244e-05
13037.200  6.688803e-05
13037.220  6.691151e-05
13037.240  6.697300e-05
13037.260  6.706552e-05
13037.280  6.718406e-05
13037.300  6.732493e-05
13037.320  6.748540e-05
13037.340  6.766343e-05
13037.360  6.785745e-05
13037.380  6.806694e-05
13037.400  6.828970e-05
13037.420  6.852570e-05
13037.440  6.877443e-05
13037.460  6.903552e-05
13037.480  6.930871e-05
13037.500  6.959383e-05
13037.520  6.989079e-05
13037.540  7.019958e-05
13037.560  7.052023e-05
13037.580  7.085286e-05
13037.600  7.110953e-05
13037.620  7.146926e-05
13037.640  7.183906e-05
13037.660  7.222174e-05
13037.680  7.261769e-05
13037.700  7.302731e-05
13037.720  7.345112e-05
13037.740  7.388968e-05
13037.760  7.434363e-05
13037.780  7.481374e-05
13037.800  7.530085e-05
13037.820  7.580596e-05
13037.840  7.633022e-05
13037.860  7.687497e-05
13037.880  7.744175e-05
13037.900  7.803240e-05
13037.920  7.864907e-05
13037.940  7.929435e-05
13037.960  7.997133e-05
13037.980  8.068373e-05
13038.000  8.143615e-05
13038.020  8.223420e-05
13038.040  8.308494e-05
13038.060  8.399722e-05
13038.080  8.498241e-05
13038.100  8.605520e-05
13038.120  8.723494e-05
13038.140  8.854754e-05
13038.160  9.002835e-05
13038.180  9.172664e-05
13038.200  9.371277e-05
13038.220  9.609085e-05
13038.240  9.901645e-05
13038.260  1.027369e-04
13038.280  1.076585e-04
13038.300  1.144872e-04
13038.320  1.245324e-04
13038.340  1.404219e-04
13038.360  1.679384e-04
13038.380  2.208375e-04
13038.400  3.288089e-04
13038.420  5.045433e-04
13038.440  5.944698e-04
13038.460  4.628559e-04
13038.480  2.998258e-04
13038.500  2.101951e-04
13038.520  1.671079e-04
13038.540  1.449686e-04
13038.560  1.326175e-04
13038.580  1.253042e-04
13038.600  1.208214e-04
13038.620  1.180475e-04
13038.640  1.163682e-04
13038.660  1.154246e-04
13038.680  1.149990e-04
13038.700  1.149500e-04
13038.720  1.151850e-04
13038.740  1.156406e-04
13038.760  1.162728e-04
13038.780  1.170501e-04
13038.800  1.179498e-04
13038.820  1.189552e-04
13038.840  1.200540e-04
13038.860  1.212370e-04
13038.880  1.224974e-04
13038.900  1.238300e-04
13038.920  1.252311e-04
13038.940  1.266981e-04
13038.960  1.282292e-04
13038.980  1.298234e-04
13039.000  1.314800e-04
13039.020  1.331989e-04
13039.040  1.349803e-04
13039.060  1.368251e-04
13039.080  1.387340e-04
13039.100  1.407084e-04
13039.120  1.427496e-04
13039.140  1.448595e-04
13039.160  1.470399e-04
13039.180  1.492930e-04
13039.200  1.516213e-04
13039.220  1.540272e-04
13039.240  1.565143e-04
13039.260  1.590845e-04
13039.280  1.617415e-04
13039.300  1.644891e-04
13039.320  1.673311e-04
13039.340  1.702715e-04
13039.360  1.733150e-04
13039.380  1.764662e-04
13039.400  1.797305e-04
13039.420  1.831135e-04
13039.440  1.866213e-04
13039.460  1.902607e-04
13039.480  1.940390e-04
13039.500  1.979644e-04
13039.520  2.020461e-04
13039.540  2.062943e-04
13039.560  2.107208e-04
13039.580  2.153392e-04
13039.600  2.201656e-04
13039.620  2.252198e-04
13039.640  2.305262e-04
13039.660  2.361165e-04
13039.680  2.420341e-04
13039.700  2.483396e-04
13039.720  2.551249e-04
13039.740  2.625371e-04
13039.760  2.708311e-04
13039.780  2.804873e-04
13039.800  2.925074e-04
13039.820  3.092089e-04
13039.840  3.361407e-04
13039.860  3.817957e-04
13039.880  4.307466e-04
13039.900  4.292892e-04
13039.920  3.940535e-04
13039.940  3.733641e-04
13039.960  3.691250e-04
13039.980  3.730327e-04
13040.000  3.810299e-04
13040.020  3.915223e-04
13040.040  4.039084e-04
13040.060  4.180329e-04
13040.080  4.340170e-04
13040.100  4.522461e-04
13040.120  4.734918e-04
13040.140  4.992513e-04
13040.160  5.326053e-04
13040.180  5.805159e-04
13040.200  6.598460e-04
13040.220  8.039515e-04
13040.240  1.000652e-03
13040.260  1.053850e-03
13040.280  9.165384e-04
13040.300  8.015063e-04
13040.320  7.591761e-04
13040.340  7.559041e-04
13040.360  7.713250e-04
13040.380  7.971993e-04
13040.400  8.301792e-04
13040.420  8.688882e-04
13040.440  9.128390e-04
13040.460  9.620050e-04
13040.480  1.016638e-03
13040.500  1.077194e-03
13040.520  1.144300e-03
13040.540  1.218753e-03
13040.560  1.301535e-03
13040.580  1.393840e-03
13040.600  1.497115e-03
13040.620  1.613116e-03
13040.640  1.743981e-03
13040.660  1.892333e-03
13040.680  2.061411e-03
13040.700  2.255248e-03
13040.720  2.478919e-03
13040.740  2.738870e-03
13040.760  3.043394e-03
13040.780  3.403300e-03
13040.800  3.832882e-03
13040.820  4.351357e-03
13040.840  4.985046e-03
13040.860  5.770759e-03
13040.880  6.761224e-03
13040.900  8.034768e-03
13040.920  9.708555e-03
13040.940  1.196958e-02
13040.960  1.512606e-02
13040.980  1.971541e-02
13041.000  2.673862e-02
13041.020  3.821543e-02
13041.040  5.861477e-02
13041.060  9.857220e-02
13041.080  1.803553e-01
13041.100  3.092039e-01
13041.120  3.672699e-01
13041.140  2.667131e-01
13041.160  1.479210e-01
13041.180  8.253604e-02
13041.200  5.065857e-02
13041.220  3.387546e-02
13041.240  2.415645e-02
13041.260  1.807300e-02
13041.280  1.402805e-02
13041.300  1.120821e-02
13041.320  9.166805e-03
13041.340  7.642888e-03
13041.360  6.475695e-03
13041.380  5.563188e-03
13041.400  4.836444e-03
13041.420  4.248622e-03
13041.440  3.766767e-03
13041.460  3.367158e-03
13041.480  3.032380e-03
13041.500  2.749424e-03
13041.520  2.508435e-03
13041.540  2.301858e-03
13041.560  2.123865e-03
13041.580  1.969992e-03
13041.600  1.836945e-03
13041.620  1.722677e-03
13041.640  1.627020e-03
13041.660  1.553436e-03
13041.680  1.508154e-03
13041.700  1.472803e-03
13041.720  1.395600e-03
13041.740  1.295707e-03
13041.760  1.216492e-03
13041.780  1.157631e-03
13041.800  1.110728e-03
13041.820  1.071516e-03
13041.840  1.038018e-03
13041.860  1.009194e-03
13041.880  9.844117e-04
13041.900  9.632410e-04
13041.920  9.453715e-04
13041.940  9.305697e-04
13041.960  9.186582e-04
13041.980  9.095018e-04
13042.000  9.030016e-04
13042.020  8.990898e-04
13042.040  8.977270e-04
13042.060  8.989001e-04
13042.080  9.026220e-04
13042.100  9.089314e-04
13042.120  9.178930e-04
13042.140  9.295994e-04
13042.160  9.441725e-04
13042.180  9.617662e-04
13042.200  9.825699e-04
13042.220  1.006813e-03
13042.240  1.034769e-03
13042.260  1.066765e-03
13042.280  1.103187e-03
13042.300  1.144492e-03
13042.320  1.191221e-03
13042.340  1.244014e-03
13042.360  1.303630e-03
13042.380  1.370974e-03
13042.400  1.447126e-03
13042.420  1.533385e-03
13042.440  1.631318e-03
13042.460  1.742830e-03
13042.480  1.870252e-03
13042.500  2.016459e-03
13042.520  2.185027e-03
13042.540  2.380446e-03
13042.560  2.608413e-03
13042.580  2.876244e-03
13042.600  3.193450e-03
13042.620  3.572579e-03
13042.640  4.030454e-03
13042.660  4.590037e-03
13042.680  5.283318e-03
13042.700  6.155925e-03
13042.720  7.275281e-03
13042.740  8.741675e-03
13042.760  1.071406e-02
13042.780  1.345233e-02
13042.800  1.740538e-02
13042.820  2.340000e-02
13042.840  3.308387e-02
13042.860  5.006271e-02
13042.880  8.296436e-02
13042.900  1.515646e-01
13042.920  2.727341e-01
13042.940  3.575856e-01
13042.960  2.809760e-01
13042.980  1.577065e-01
13043.000  8.599447e-02
13043.020  5.166165e-02
13043.040  3.416971e-02
13043.060  2.440086e-02
13043.080  1.832023e-02
13043.100  1.406711e-02
13043.120  1.105646e-02
13043.140  8.932243e-03
13043.160  7.382787e-03
13043.180  6.212898e-03
13043.200  5.306438e-03
13043.220  4.588851e-03
13043.240  4.011166e-03
13043.260  3.539356e-03
13043.280  3.147430e-03
13043.300  2.816905e-03
13043.320  2.536834e-03
13043.340  2.298126e-03
13043.360  2.092902e-03
13043.380  1.915052e-03
13043.400  1.759853e-03
13043.420  1.623583e-03
13043.440  1.503264e-03
13043.460  1.396486e-03
13043.480  1.301281e-03
13043.500  1.216024e-03
13043.520  1.139370e-03
13043.540  1.070193e-03
13043.560  1.007544e-03
13043.580  9.506243e-04
13043.600  8.987508e-04
13043.620  8.513408e-04
13043.640  8.078935e-04
13043.660  7.679766e-04
13043.680  7.312154e-04
13043.700  6.972840e-04
13043.720  6.658976e-04
13043.740  6.368064e-04
13043.760  6.097909e-04
13043.780  5.846574e-04
13043.800  5.612343e-04
13043.820  5.393695e-04
13043.840  5.189273e-04
13043.860  4.997870e-04
13043.880  4.818404e-04
13043.900  4.649905e-04
13043.920  4.491501e-04
13043.940  4.342409e-04
13043.960  4.201920e-04
13043.980  4.069395e-04
13044.000  3.944257e-04
13044.020  3.825978e-04
13044.040  3.714088e-04
13044.060  3.608153e-04
13044.080  3.507822e-04
13044.100  3.412662e-04
13044.120  3.322390e-04
13044.140  3.236718e-04
13044.160  3.155385e-04
13044.180  3.078161e-04
13044.200  3.004842e-04
13044.220  2.935256e-04
13044.240  2.869262e-04
13044.260  2.806753e-04
13044.280  2.747667e-04
13044.300  2.691997e-04
13044.320  2.639811e-04
13044.340  2.591286e-04
13044.360  2.546762e-04
13044.380  2.506850e-04
13044.400  2.472621e-04
13044.420  2.445994e-04
13044.440  2.430550e-04
13044.460  2.433439e-04
13044.480  2.470174e-04
13044.500  2.577326e-04
13044.520  2.837870e-04
13044.540  3.328964e-04
13044.560  3.694908e-04
13044.580  3.365595e-04
13044.600  2.795066e-04
13044.620  2.443268e-04
13044.640  2.264646e-04
13044.660  2.168363e-04
13044.680  2.113407e-04
13044.700  2.083809e-04
13044.720  2.074372e-04
13044.740  2.085853e-04
13044.760  2.124443e-04
13044.780  2.204458e-04
13044.800  2.356488e-04
13044.820  2.649398e-04
13044.840  3.250050e-04
13044.860  4.533999e-04
13044.880  6.727183e-04
13044.900  7.942336e-04
13044.920  6.276699e-04
13044.940  4.151811e-04
13044.960  2.980523e-04
13044.980  2.431096e-04
13045.000  2.126714e-04
13045.020  1.945245e-04
13045.040  1.826648e-04
13045.060  1.743275e-04
13045.080  1.681153e-04
13045.100  1.632649e-04
13045.120  1.593309e-04
13045.140  1.560425e-04
13045.160  1.532234e-04
13045.180  1.507572e-04
13045.200  1.485639e-04
13045.220  1.465867e-04
13045.240  1.447848e-04
13045.260  1.431277e-04
13045.280  1.415926e-04
13045.300  1.401618e-04
13045.320  1.388216e-04
13045.340  1.375611e-04
13045.360  1.363714e-04
13045.380  1.352455e-04
13045.400  1.341775e-04
13045.420  1.331624e-04
13045.440  1.321962e-04
13045.460  1.312754e-04
13045.480  1.303969e-04
13045.500  1.295583e-04
13045.520  1.287573e-04
13045.540  1.279919e-04
13045.560  1.272604e-04
13045.580  1.265613e-04
13045.600  1.258934e-04
13045.620  1.252553e-04
13045.640  1.246461e-04
13045.660  1.240649e-04
13045.680  1.235108e-04
13045.700  1.229831e-04
13045.720  1.224812e-04
13045.740  1.220055e-04
13045.760  1.215536e-04
13045.780  1.211262e-04
13045.800  1.207228e-04
13045.820  1.203436e-04
13045.840  1.199883e-04
13045.860  1.196570e-04
13045.880  1.193500e-04
13045.900  1.190674e-04
13045.920  1.188099e-04
13045.940  1.185819e-04
13045.960  1.183772e-04
13045.980  1.182007e-04
13046.000  1.180545e-04
13046.020  1.179410e-04
13046.040  1.178636e-04
13046.060  1.178268e-04
13046.080  1.178366e-04
13046.100  1.179014e-04
13046.120  1.180326e-04
13046.140  1.182467e-04
13046.160  1.185674e-04
13046.180  1.190305e-04
13046.200  1.196905e-04
13046.220  1.206355e-04
13046.240  1.220141e-04
13046.260  1.240913e-04
13046.280  1.273761e-04
13046.300  1.327555e-04
13046.320  1.430433e-04
13046.340  1.640241e-04
13046.360  2.062859e-04
13046.380  2.591662e-04
13046.400  2.577728e-04
13046.420  2.044465e-04
13046.440  1.632826e-04
13046.460  1.430450e-04
13046.480  1.331691e-04
13046.500  1.278835e-04
13046.520  1.248123e-04
13046.540  1.229220e-04
13046.560  1.217169e-04
13046.580  1.209382e-04
13046.600  1.204406e-04
13046.620  1.201373e-04
13046.640  1.199752e-04
13046.660  1.199189e-04
13046.680  1.199452e-04
13046.700  1.200379e-04
13046.720  1.201858e-04
13046.740  1.203808e-04
13046.760  1.206171e-04
13046.780  1.208904e-04
13046.800  1.211976e-04
13046.820  1.215363e-04
13046.840  1.219051e-04
13046.860  1.223028e-04
13046.880  1.227288e-04
13046.900  1.231826e-04
13046.920  1.236644e-04
13046.940  1.241744e-04
13046.960  1.247132e-04
13046.980  1.252814e-04
13047.000  1.258804e-04
13047.020  1.265113e-04
13047.040  1.271760e-04
13047.060  1.278766e-04
13047.080  1.286156e-04
13047.100  1.293962e-04
13047.120  1.302221e-04
13047.140  1.310979e-04
13047.160  1.320293e-04
13047.180  1.330230e-04
13047.200  1.340875e-04
13047.220  1.352336e-04
13047.240  1.364746e-04
13047.260  1.378275e-04
13047.280  1.393147e-04
13047.300  1.409651e-04
13047.320  1.428175e-04
13047.340  1.449244e-04
13047.360  1.473587e-04
13047.380  1.502236e-04
13047.400  1.536694e-04
13047.420  1.579233e-04
13047.440  1.633333e-04
13047.460  1.704691e-04
13047.480  1.803006e-04
13047.500  1.945860e-04
13047.520  2.167597e-04
13047.540  2.541507e-04
13047.560  3.238674e-04
13047.580  4.657099e-04
13047.600  7.289828e-04
13047.620  9.700136e-04
13047.640  8.551602e-04
13047.660  5.637746e-04
13047.680  3.767971e-04
13047.700  2.862434e-04
13047.720  2.408170e-04
13047.740  2.159340e-04
13047.760  2.012911e-04
13047.780  1.922456e-04
13047.800  1.865028e-04
13047.820  1.828340e-04
13047.840  1.805363e-04
13047.860  1.791844e-04
13047.880  1.785124e-04
13047.900  1.783435e-04
13047.920  1.785588e-04
13047.940  1.790762e-04
13047.960  1.798369e-04
13047.980  1.807989e-04
13048.000  1.819309e-04
13048.020  1.832099e-04
13048.040  1.846185e-04
13048.060  1.861436e-04
13048.080  1.876046e-04
13048.100  1.893403e-04
13048.120  1.911647e-04
13048.140  1.930783e-04
13048.160  1.950780e-04
13048.180  1.971617e-04
13048.200  1.993281e-04
13048.220  2.015765e-04
13048.240  2.039068e-04
13048.260  2.063192e-04
13048.280  2.088146e-04
13048.300  2.113939e-04
13048.320  2.140585e-04
13048.340  2.168102e-04
13048.360  2.196510e-04
13048.380  2.225831e-04
13048.400  2.256091e-04
13048.420  2.287317e-04
13048.440  2.319540e-04
13048.460  2.352793e-04
13048.480  2.387111e-04
13048.500  2.422534e-04
13048.520  2.459103e-04
13048.540  2.496863e-04
13048.560  2.535861e-04
13048.580  2.576149e-04
13048.600  2.617784e-04
13048.620  2.660825e-04
13048.640  2.705336e-04
13048.660  2.751389e-04
13048.680  2.799059e-04
13048.700  2.848429e-04
13048.720  2.899591e-04
13048.740  2.952646e-04
13048.760  3.007707e-04
13048.780  3.064901e-04
13048.800  3.124371e-04
13048.820  3.186285e-04
13048.840  3.250838e-04
13048.860  3.318268e-04
13048.880  3.388864e-04
13048.900  3.462997e-04
13048.920  3.541151e-04
13048.940  3.623999e-04
13048.960  3.712492e-04
13048.980  3.808087e-04
13049.000  3.913129e-04
13049.020  4.031676e-04
13049.040  4.171376e-04
13049.060  4.348025e-04
13049.080  4.597678e-04
13049.100  5.005144e-04
13049.120  5.700686e-04
13049.140  6.467564e-04
13049.160  6.475250e-04
13049.180  5.907369e-04
13049.200  5.539409e-04
13049.220  5.438167e-04
13049.240  5.475032e-04
13049.260  5.583684e-04
13049.280  5.739558e-04
13049.300  5.936873e-04
13049.320  6.181439e-04
13049.340  6.492138e-04
13049.360  6.911676e-04
13049.380  7.537998e-04
13049.400  8.609691e-04
13049.420  1.064017e-03
13049.440  1.374298e-03
13049.460  1.511314e-03
13049.480  1.297093e-03
13049.500  1.069062e-03
13049.520  9.637953e-04
13049.540  9.297268e-04
13049.560  9.281768e-04
13049.580  9.430343e-04
13049.600  9.675968e-04
13049.620  9.988687e-04
13049.640  1.035456e-03
13049.660  1.076732e-03
13049.680  1.122481e-03
13049.700  1.172733e-03
13049.720  1.227678e-03
13049.740  1.287633e-03
13049.760  1.353026e-03
13049.780  1.424386e-03
13049.800  1.502351e-03
13049.820  1.587680e-03
13049.840  1.681266e-03
13049.860  1.784162e-03
13049.880  1.897607e-03
13049.900  2.023066e-03
13049.920  2.162277e-03
13049.940  2.317309e-03
13049.960  2.490648e-03
13049.980  2.685292e-03
13050.000  2.904873e-03
13050.020  3.153851e-03
13050.040  3.437728e-03
13050.060  3.763356e-03
13050.080  4.139363e-03
13050.100  4.576724e-03
13050.120  5.089574e-03
13050.140  5.696364e-03
13050.160  6.421541e-03
13050.180  7.298042e-03
13050.200  8.371079e-03
13050.220  9.704051e-03
13050.240  1.138805e-02
13050.260  1.355886e-02
13050.280  1.642037e-02
13050.300  2.029952e-02
13050.320  2.573799e-02
13050.340  3.368611e-02
13050.360  4.592617e-02
13050.380  6.607944e-02
13050.400  1.021882e-01
13050.420  1.731090e-01
13050.440  3.145663e-01
13050.460  5.157296e-01
13050.480  5.712912e-01
13050.500  3.971335e-01
13050.520  2.206725e-01
13050.540  1.255327e-01
13050.560  7.833289e-02
13050.580  5.299931e-02
13050.600  3.811080e-02
13050.620  2.868985e-02
13050.640  2.237439e-02
13050.660  1.794382e-02
13050.680  1.472022e-02
13050.700  1.230312e-02
13050.720  1.044724e-02
13050.740  8.991584e-03
13050.760  7.829603e-03
13050.780  6.887984e-03
13050.800  6.114992e-03
13050.820  5.473332e-03
13050.840  4.935660e-03
13050.860  4.481712e-03
13050.880  4.096538e-03
13050.900  3.769663e-03
13050.920  3.495488e-03
13050.940  3.275548e-03
13050.960  3.114996e-03
13050.980  2.976787e-03
13051.000  2.781422e-03
13051.020  2.564600e-03
13051.040  2.388186e-03
13051.060  2.248969e-03
13051.080  2.133368e-03
13051.100  2.034139e-03
13051.120  1.947590e-03
13051.140  1.871548e-03
13051.160  1.804552e-03
13051.180  1.745527e-03
13051.200  1.693640e-03
13051.220  1.648222e-03
13051.240  1.608730e-03
13051.260  1.574716e-03
13051.280  1.545810e-03
13051.300  1.521712e-03
13051.320  1.502178e-03
13051.340  1.490237e-03
13051.360  1.479307e-03
13051.380  1.472501e-03
13051.400  1.469759e-03
13051.420  1.471057e-03
13051.440  1.476413e-03
13051.460  1.485883e-03
13051.480  1.499561e-03
13051.500  1.517586e-03
13051.520  1.540141e-03
13051.540  1.567457e-03
13051.560  1.599821e-03
13051.580  1.637577e-03
13051.600  1.681140e-03
13051.620  1.731003e-03
13051.640  1.787749e-03
13051.660  1.852065e-03
13051.680  1.924768e-03
13051.700  2.006817e-03
13051.720  2.099353e-03
13051.740  2.203730e-03
13051.760  2.321565e-03
13051.780  2.454799e-03
13051.800  2.605774e-03
13051.820  2.777339e-03
13051.840  2.972993e-03
13051.860  3.197088e-03
13051.880  3.455122e-03
13051.900  3.754039e-03
13051.920  4.102049e-03
13051.940  4.508715e-03
13051.960  4.988828e-03
13051.980  5.564938e-03
13052.000  6.268390e-03
13052.020  7.148545e-03
13052.040  8.292412e-03
13052.060  9.824361e-03
13052.080  1.169133e-02
13052.100  1.357994e-02
13052.120  1.581900e-02
13052.140  1.909126e-02
13052.160  2.389428e-02
13052.180  3.100171e-02
13052.200  4.194440e-02
13052.220  5.985842e-02
13052.240  9.166828e-02
13052.260  1.536157e-01
13052.280  2.782384e-01
13052.300  4.677633e-01
13052.320  5.459683e-01
13052.340  3.959998e-01
13052.360  2.221104e-01
13052.380  1.252817e-01
13052.400  7.740407e-02
13052.420  5.196471e-02
13052.440  3.714543e-02
13052.460  2.783180e-02
13052.480  2.162022e-02
13052.500  1.727928e-02
13052.520  1.412995e-02
13052.540  1.177439e-02
13052.560  9.967122e-03
13052.580  8.552366e-03
13052.600  7.424254e-03
13052.620  6.507913e-03
13052.640  5.751552e-03
13052.660  5.121879e-03
13052.680  4.593106e-03
13052.700  4.144635e-03
13052.720  3.760823e-03
13052.740  3.429727e-03
13052.760  3.142074e-03
13052.780  2.890553e-03
13052.800  2.669337e-03
13052.820  2.473728e-03
13052.840  2.299907e-03
13052.860  2.144744e-03
13052.880  2.005651e-03
13052.900  1.880473e-03
13052.920  1.767409e-03
13052.940  1.664938e-03
13052.960  1.571772e-03
13052.980  1.486814e-03
13053.000  1.409124e-03
13053.020  1.337893e-03
13053.040  1.272424e-03
13053.060  1.212112e-03
13053.080  1.156427e-03
13053.100  1.104910e-03
13053.120  1.057157e-03
13053.140  1.012812e-03
13053.160  9.715612e-04
13053.180  9.331285e-04
13053.200  8.972682e-04
13053.220  8.637626e-04
13053.240  8.353056e-04
13053.260  8.059559e-04
13053.280  7.784440e-04
13053.300  7.526353e-04
13053.320  7.284120e-04
13053.340  7.056720e-04
13053.360  6.843289e-04
13053.380  6.643134e-04
13053.400  6.455750e-04
13053.420  6.280868e-04
13053.440  6.118550e-04
13053.460  5.969321e-04
13053.480  5.834502e-04
13053.500  5.716795e-04
13053.520  5.621571e-04
13053.540  5.559825e-04
13053.560  5.555552e-04
13053.580  5.664869e-04
13053.600  6.012390e-04
13053.620  6.710349e-04
13053.640  7.231202e-04
13053.660  6.710019e-04
13053.680  5.795492e-04
13053.700  5.207100e-04
13053.720  4.896548e-04
13053.740  4.727528e-04
13053.760  4.639223e-04
13053.780  4.613672e-04
13053.800  4.657068e-04
13053.820  4.800382e-04
13053.840  5.119498e-04
13053.860  5.796363e-04
13053.880  7.263835e-04
13053.900  1.015649e-03
13053.920  1.321237e-03
13053.940  1.229788e-03
13053.960  8.746953e-04
13053.980  6.270348e-04
13054.000  5.025885e-04
13054.020  4.374514e-04
13054.040  3.992059e-04
13054.060  3.742859e-04
13054.080  3.566373e-04
13054.100  3.432937e-04
13054.120  3.326756e-04
13054.140  3.238825e-04
13054.160  3.163693e-04
13054.180  3.097943e-04
13054.200  3.039287e-04
13054.220  2.986174e-04
13054.240  2.937512e-04
13054.260  2.892511e-04
13054.280  2.850584e-04
13054.300  2.811288e-04
13054.320  2.774278e-04
13054.340  2.739286e-04
13054.360  2.706094e-04
13054.380  2.674526e-04
13054.400  2.644437e-04
13054.420  2.615706e-04
13054.440  2.588231e-04
13054.460  2.561923e-04
13054.480  2.536708e-04
13054.500  2.512518e-04
13054.520  2.489297e-04
13054.540  2.466993e-04
13054.560  2.445560e-04
13054.580  2.424958e-04
13054.600  2.405150e-04
13054.620  2.386101e-04
13054.640  2.367783e-04
13054.660  2.350167e-04
13054.680  2.333228e-04
13054.700  2.316943e-04
13054.720  2.301292e-04
13054.740  2.286254e-04
13054.760  2.271812e-04
13054.780  2.257950e-04
13054.800  2.244654e-04
13054.820  2.231909e-04
13054.840  2.219706e-04
13054.860  2.208032e-04
13054.880  2.196880e-04
13054.900  2.186242e-04
13054.920  2.176113e-04
13054.940  2.166489e-04
13054.960  2.157367e-04
13054.980  2.148750e-04
13055.000  2.140639e-04
13055.020  2.133042e-04
13055.040  2.125968e-04
13055.060  2.119435e-04
13055.080  2.113462e-04
13055.100  2.108081e-04
13055.120  2.103332e-04
13055.140  2.099269e-04
13055.160  2.095966e-04
13055.180  2.093524e-04
13055.200  2.092082e-04
13055.220  2.091834e-04
13055.240  2.093055e-04
13055.260  2.096149e-04
13055.280  2.101722e-04
13055.300  2.110701e-04
13055.320  2.124592e-04
13055.340  2.145932e-04
13055.360  2.179265e-04
13055.380  2.233314e-04
13055.400  2.326297e-04
13055.420  2.499723e-04
13055.440  2.849678e-04
13055.460  3.517862e-04
13055.480  4.253070e-04
13055.500  4.129867e-04
13055.520  3.337196e-04
13055.540  2.746133e-04
13055.560  2.448111e-04
13055.580  2.298148e-04
13055.600  2.215943e-04
13055.620  2.167248e-04
13055.640  2.136769e-04
13055.660  2.117009e-04
13055.680  2.104025e-04
13055.700  2.095575e-04
13055.720  2.090316e-04
13055.740  2.087427e-04
13055.760  2.086360e-04
13055.780  2.086757e-04
13055.800  2.088375e-04
13055.820  2.091050e-04
13055.840  2.094672e-04
13055.860  2.099168e-04
13055.880  2.104559e-04
13055.900  2.110696e-04
13055.920  2.117645e-04
13055.940  2.125422e-04
13055.960  2.134064e-04
13055.980  2.143625e-04
13056.000  2.154180e-04
13056.020  2.165829e-04
13056.040  2.178703e-04
13056.060  2.192968e-04
13056.080  2.208843e-04
13056.100  2.226607e-04
13056.120  2.246628e-04
13056.140  2.269395e-04
13056.160  2.295563e-04
13056.180  2.326027e-04
13056.200  2.362035e-04
13056.220  2.405371e-04
13056.240  2.458645e-04
13056.260  2.525840e-04
13056.280  2.613103e-04
13056.300  2.730600e-04
13056.320  2.895838e-04
13056.340  3.140988e-04
13056.360  3.529849e-04
13056.380  4.200584e-04
13056.400  5.472357e-04
13056.420  8.048457e-04
13056.440  1.234848e-03
13056.460  1.501415e-03
13056.480  1.214847e-03
13056.500  7.930211e-04
13056.520  5.469040e-04
13056.540  4.264689e-04
13056.560  3.641444e-04
13056.580  3.290150e-04
13056.600  3.078203e-04
13056.620  2.944101e-04
13056.640  2.856708e-04
13056.660  2.799030e-04
13056.680  2.761172e-04
13056.700  2.737147e-04
13056.720  2.723071e-04
13056.740  2.716398e-04
13056.760  2.715392e-04
13056.780  2.718841e-04
13056.800  2.725876e-04
13056.820  2.735867e-04
13056.840  2.748345e-04
13056.860  2.762960e-04
13056.880  2.779448e-04
13056.900  2.797606e-04
13056.920  2.817278e-04
13056.940  2.838345e-04
13056.960  2.860716e-04
13056.980  2.884319e-04
13057.000  2.909102e-04
13057.020  2.935027e-04
13057.040  2.962064e-04
13057.060  2.990197e-04
13057.080  3.019413e-04
13057.100  3.049710e-04
13057.120  3.081089e-04
13057.140  3.113557e-04
13057.160  3.147125e-04
13057.180  3.181809e-04
13057.200  3.217626e-04
13057.220  3.254601e-04
13057.240  3.292759e-04
13057.260  3.332128e-04
13057.280  3.372741e-04
13057.300  3.414634e-04
13057.320  3.457844e-04
13057.340  3.502414e-04
13057.360  3.548388e-04
13057.380  3.595815e-04
13057.400  3.644747e-04
13057.420  3.695241e-04
13057.440  3.747356e-04
13057.460  3.801156e-04
13057.480  3.856713e-04
13057.500  3.914100e-04
13057.520  3.973399e-04
13057.540  4.034697e-04
13057.560  4.098090e-04
13057.580  4.163683e-04
13057.600  4.231603e-04
13057.620  4.301950e-04
13057.640  4.374878e-04
13057.660  4.450545e-04
13057.680  4.529132e-04
13057.700  4.610845e-04
13057.720  4.695927e-04
13057.740  4.784665e-04
13057.760  4.877411e-04
13057.780  4.974660e-04
13057.800  5.076858e-04
13057.820  5.184812e-04
13057.840  5.299561e-04
13057.860  5.422593e-04
13057.880  5.556185e-04
13057.900  5.704005e-04
13057.920  5.872382e-04
13057.940  6.073117e-04
13057.960  6.330277e-04
13057.980  6.697486e-04
13058.000  7.295758e-04
13058.020  8.297701e-04
13058.040  9.391400e-04
13058.060  9.437823e-04
13058.080  8.638776e-04
13058.100  8.085598e-04
13058.120  7.925463e-04
13058.140  7.988865e-04
13058.160  8.185634e-04
13058.180  8.494307e-04
13058.200  8.936009e-04
13058.220  9.599774e-04
13058.240  1.068646e-03
13058.260  1.267940e-03
13058.280  1.632722e-03
13058.300  2.046062e-03
13058.320  2.023449e-03
13058.340  1.640711e-03
13058.360  1.359530e-03
13058.380  1.233703e-03
13058.400  1.187491e-03
13058.420  1.178677e-03
13058.440  1.189354e-03
13058.460  1.211627e-03
13058.480  1.241743e-03
13058.500  1.277817e-03
13058.520  1.318888e-03
13058.540  1.364491e-03
13058.560  1.414455e-03
13058.580  1.468790e-03
13058.600  1.527636e-03
13058.620  1.591234e-03
13058.640  1.659912e-03
13058.660  1.734075e-03
13058.680  1.814211e-03
13058.700  1.900890e-03
13058.720  1.994775e-03
13058.740  2.096635e-03
13058.760  2.207356e-03
13058.780  2.327964e-03
13058.800  2.459645e-03
13058.820  2.603780e-03
13058.840  2.761974e-03
13058.860  2.936111e-03
13058.880  3.128401e-03
13058.900  3.341459e-03
13058.920  3.578391e-03
13058.940  3.842910e-03
13058.960  4.139484e-03
13058.980  4.473526e-03
13059.000  4.851645e-03
13059.020  5.281974e-03
13059.040  5.774618e-03
13059.060  6.342248e-03
13059.080  7.000930e-03
13059.100  7.771270e-03
13059.120  8.680043e-03
13059.140  9.762550e-03
13059.160  1.106608e-02
13059.180  1.265513e-02
13059.200  1.461949e-02
13059.220  1.709106e-02
13059.240  2.025061e-02
13059.260  2.438236e-02
13059.280  2.992934e-02
13059.300  3.761320e-02
13059.320  4.867359e-02
13059.340  6.537431e-02
13059.360  9.216210e-02
13059.380  1.385145e-01
13059.400  2.259119e-01
13059.420  3.979636e-01
13059.440  6.750217e-01
13059.460  8.489236e-01
13059.480  6.772964e-01
13059.500  3.998151e-01
13059.520  2.268995e-01
13059.540  1.390494e-01
13059.560  9.249243e-02
13059.580  6.560932e-02
13059.600  4.886288e-02
13059.620  3.778122e-02
13059.640  3.008924e-02
13059.660  2.454174e-02
13059.680  2.041421e-02
13059.700  1.726211e-02
13059.720  1.480439e-02
13059.740  1.285195e-02
13059.760  1.127690e-02
13059.780  9.989878e-03
13059.800  8.927536e-03
13059.820  8.045207e-03
13059.840  7.313751e-03
13059.860  6.719883e-03
13059.880  6.255320e-03
13059.900  5.848743e-03
13059.920  5.390197e-03
13059.940  4.934092e-03
13059.960  4.555621e-03
13059.980  4.245676e-03
13060.000  3.983193e-03
13060.020  3.755877e-03
13060.040  3.556649e-03
13060.060  3.380879e-03
13060.080  3.225216e-03
13060.100  3.087074e-03
13060.120  2.964387e-03
13060.140  2.855459e-03
13060.160  2.758885e-03
13060.180  2.673488e-03
13060.200  2.598276e-03
13060.220  2.532418e-03
13060.240  2.475211e-03
13060.260  2.426070e-03
13060.280  2.384509e-03
13060.300  2.350130e-03
13060.320  2.322618e-03
13060.340  2.301731e-03
13060.360  2.287296e-03
13060.380  2.279212e-03
13060.400  2.277441e-03
13060.420  2.282019e-03
13060.440  2.293054e-03
13060.460  2.310738e-03
13060.480  2.335361e-03
13060.500  2.367331e-03
13060.520  2.407210e-03
13060.540  2.455776e-03
13060.560  2.514107e-03
13060.580  2.583775e-03
13060.600  2.667173e-03
13060.620  2.768208e-03
13060.640  2.893836e-03
13060.660  3.057762e-03
13060.680  3.289865e-03
13060.700  3.656322e-03
13060.720  4.245072e-03
13060.740  4.864341e-03
13060.760  4.926807e-03
13060.780  4.610935e-03
13060.800  4.462317e-03
13060.820  4.528726e-03
13060.840  4.723970e-03
13060.860  5.004003e-03
13060.880  5.354619e-03
13060.900  5.775309e-03
13060.920  6.272928e-03
13060.940  6.859734e-03
13060.960  7.553302e-03
13060.980  8.377493e-03
13061.000  9.364377e-03
13061.020  1.055727e-02
13061.040  1.201548e-02
13061.060  1.382168e-02
13061.080  1.609365e-02
13061.100  1.900513e-02
13061.120  2.281378e-02
13061.140  2.793003e-02
13061.160  3.500822e-02
13061.180  4.518590e-02
13061.200  6.052851e-02
13061.220  8.508089e-02
13061.240  1.274366e-01
13061.260  2.070539e-01
13061.280  3.639423e-01
13061.300  6.208600e-01
13061.320  7.936924e-01
13061.340  6.439389e-01
13061.360  3.825794e-01
13061.380  2.167402e-01
13061.400  1.323661e-01
13061.420  8.778651e-02
13061.440  6.212443e-02
13061.460  4.617673e-02
13061.480  3.564183e-02
13061.500  2.833804e-02
13061.520  2.307464e-02
13061.540  1.916075e-02
13061.560  1.617326e-02
13061.580  1.384202e-02
13061.600  1.198320e-02
13061.620  1.047836e-02
13061.640  9.245471e-03
13061.660  8.223001e-03
13061.680  7.365429e-03
13061.700  6.638979e-03
13061.720  6.018153e-03
13061.740  5.483382e-03
13061.760  5.019438e-03
13061.780  4.614321e-03
13061.800  4.258472e-03
13061.820  3.944201e-03
13061.840  3.665264e-03
13061.860  3.416548e-03
13061.880  3.193837e-03
13061.900  2.993629e-03
13061.920  2.812993e-03
13061.940  2.649466e-03
13061.960  2.500964e-03
13061.980  2.365718e-03
13062.000  2.242215e-03
13062.020  2.129161e-03
13062.040  2.025446e-03
13062.060  1.930113e-03
13062.080  1.842341e-03
13062.100  1.761427e-03
13062.120  1.686778e-03
13062.140  1.617903e-03
13062.160  1.554420e-03
13062.180  1.496066e-03
13062.200  1.442744e-03
13062.220  1.394605e-03
13062.240  1.352234e-03
13062.260  1.317082e-03
13062.280  1.292530e-03
13062.300  1.286514e-03
13062.320  1.315972e-03
13062.340  1.393875e-03
13062.360  1.447101e-03
13062.380  1.360969e-03
13062.400  1.219348e-03
13062.420  1.122158e-03
13062.440  1.067029e-03
13062.460  1.036673e-03
13062.480  1.024521e-03
13062.500  1.032454e-03
13062.520  1.071528e-03
13062.540  1.170569e-03
13062.560  1.395286e-03
13062.580  1.817937e-03
13062.600  2.193212e-03
13062.620  1.989096e-03
13062.640  1.482751e-03
13062.660  1.137194e-03
13062.680  9.554914e-04
13062.700  8.544837e-04
13062.720  7.914053e-04
13062.740  7.477285e-04
13062.760  7.149497e-04
13062.780  6.888118e-04
13062.800  6.670083e-04
13062.820  6.482028e-04
13062.840  6.315747e-04
13062.860  6.166009e-04
13062.880  6.029256e-04
13062.900  5.903029e-04
13062.920  5.785564e-04
13062.940  5.675554e-04
13062.960  5.572007e-04
13062.980  5.474150e-04
13063.000  5.381372e-04
13063.020  5.293174e-04
13063.040  5.209149e-04
13063.060  5.128952e-04
13063.080  5.052293e-04
13063.100  4.978922e-04
13063.120  4.908620e-04
13063.140  4.841197e-04
13063.160  4.776482e-04
13063.180  4.714324e-04
13063.200  4.654586e-04
13063.220  4.597146e-04
13063.240  4.541891e-04
13063.260  4.488718e-04
13063.280  4.437534e-04
13063.300  4.388265e-04
13063.320  4.340882e-04
13063.340  4.295168e-04
13063.360  4.251133e-04
13063.380  4.208713e-04
13063.400  4.167847e-04
13063.420  4.128481e-04
13063.440  4.090563e-04
13063.460  4.054037e-04
13063.480  4.018873e-04
13063.500  3.985022e-04
13063.520  3.952446e-04
13063.540  3.921108e-04
13063.560  3.890975e-04
13063.580  3.862016e-04
13063.600  3.834205e-04
13063.620  3.807517e-04
13063.640  3.781929e-04
13063.660  3.757423e-04
13063.680  3.733984e-04
13063.700  3.711600e-04
13063.720  3.690264e-04
13063.740  3.669972e-04
13063.760  3.650727e-04
13063.780  3.632540e-04
13063.800  3.615427e-04
13063.820  3.599417e-04
13063.840  3.584551e-04
13063.860  3.570887e-04
13063.880  3.558506e-04
13063.900  3.547522e-04
13063.920  3.538088e-04
13063.940  3.530421e-04
13063.960  3.524824e-04
13063.980  3.521732e-04
13064.000  3.521781e-04
13064.020  3.525937e-04
13064.040  3.535670e-04
13064.060  3.553382e-04
13064.080  3.583127e-04
13064.100  3.632169e-04
13064.120  3.714457e-04
13064.140  3.859001e-04
13064.160  4.130829e-04
13064.180  4.672236e-04
13064.200  5.648294e-04
13064.220  6.586746e-04
13064.240  6.286786e-04
13064.260  5.187149e-04
13064.280  4.388282e-04
13064.300  3.975611e-04
13064.320  3.762199e-04
13064.340  3.642915e-04
13064.360  3.571432e-04
13064.380  3.526541e-04
13064.400  3.497725e-04
13064.420  3.479382e-04
13064.440  3.468349e-04
13064.460  3.462765e-04
13064.480  3.461533e-04
13064.500  3.463993e-04
13064.520  3.469796e-04
13064.540  3.478810e-04
13064.560  3.491080e-04
13064.580  3.506817e-04
13064.600  3.526402e-04
13064.620  3.550420e-04
13064.640  3.579716e-04
13064.660  3.615487e-04
13064.680  3.659432e-04
13064.700  3.713988e-04
13064.720  3.782727e-04
13064.740  3.871065e-04
13064.760  3.987289e-04
13064.780  4.144935e-04
13064.800  4.366931e-04
13064.820  4.694526e-04
13064.840  5.207304e-04
13064.860  6.071669e-04
13064.880  7.662062e-04
13064.900  1.079064e-03
13064.920  1.630239e-03
13064.940  2.119046e-03
13064.960  1.901860e-03
13064.980  1.300937e-03
13065.000  8.868153e-04
13065.020  6.754819e-04
13065.040  5.660971e-04
13065.060  5.047743e-04
13065.080  4.678196e-04
13065.100  4.442988e-04
13065.120  4.287416e-04
13065.140  4.181948e-04
13065.160  4.109604e-04
13065.180  4.060071e-04
13065.200  4.026880e-04
13065.220  4.005715e-04
13065.240  3.993745e-04
13065.260  3.988799e-04
13065.280  3.989520e-04
13065.300  3.994854e-04
13065.320  4.004026e-04
13065.340  4.016455e-04
13065.360  4.031701e-04
13065.380  4.049425e-04
13065.400  4.069366e-04
13065.420  4.091321e-04
13065.440  4.115131e-04
13065.460  4.140673e-04
13065.480  4.167851e-04
13065.500  4.196592e-04
13065.520  4.226837e-04
13065.540  4.258547e-04
13065.560  4.291691e-04
13065.580  4.326249e-04
13065.600  4.362211e-04
13065.620  4.399573e-04
13065.640  4.438337e-04
13065.660  4.478513e-04
13065.680  4.520113e-04
13065.700  4.563156e-04
13065.720  4.607666e-04
13065.740  4.653668e-04
13065.760  4.701194e-04
13065.780  4.750278e-04
13065.800  4.800958e-04
13065.820  4.853278e-04
13065.840  4.907282e-04
13065.860  4.963020e-04
13065.880  5.020547e-04
13065.900  5.079920e-04
13065.920  5.141202e-04
13065.940  5.204461e-04
13065.960  5.269768e-04
13065.980  5.337201e-04
13066.000  5.406844e-04
13066.020  5.478787e-04
13066.040  5.553128e-04
13066.060  5.629973e-04
13066.080  5.709437e-04
13066.100  5.791647e-04
13066.120  5.876739e-04
13066.140  5.958859e-04
13066.160  6.050203e-04
13066.180  6.144945e-04
13066.200  6.243300e-04
13066.220  6.345516e-04
13066.240  6.451881e-04
13066.260  6.562735e-04
13066.280  6.678488e-04
13066.300  6.799640e-04
13066.320  6.926825e-04
13066.340  7.060860e-04
13066.360  7.202840e-04
13066.380  7.354291e-04
13066.400  7.517397e-04
13066.420  7.695505e-04
13066.440  7.893980e-04
13066.460  8.122029e-04
13066.480  8.396683e-04
13066.500  8.752301e-04
13066.520  9.264301e-04
13066.540  1.009941e-03
13066.560  1.148980e-03
13066.580  1.301716e-03
13066.600  1.313603e-03
13066.620  1.205961e-03
13066.640  1.129939e-03
13066.660  1.111613e-03
13066.680  1.130358e-03
13066.700  1.177482e-03
13066.720  1.263321e-03
13066.740  1.403000e-03
13066.760  1.660798e-03
13066.780  2.132553e-03
13066.800  2.704464e-03
13066.820  2.757702e-03
13066.840  2.254575e-03
13066.860  1.823386e-03
13066.880  1.609947e-03
13066.900  1.519170e-03
13066.920  1.486886e-03
13066.940  1.484556e-03
13066.960  1.499382e-03
13066.980  1.525197e-03
13067.000  1.558830e-03
13067.020  1.598575e-03
13067.040  1.643502e-03
13067.060  1.693132e-03
13067.080  1.747243e-03
13067.100  1.805795e-03
13067.120  1.868870e-03
13067.140  1.936643e-03
13067.160  2.009369e-03
13067.180  2.087372e-03
13067.200  2.171044e-03
13067.220  2.260843e-03
13067.240  2.357303e-03
13067.260  2.461030e-03
13067.280  2.572723e-03
13067.300  2.693175e-03
13067.320  2.823293e-03
13067.340  2.964112e-03
13067.360  3.116818e-03
13067.380  3.282771e-03
13067.400  3.463539e-03
13067.420  3.660932e-03
13067.440  3.877050e-03
13067.460  4.114340e-03
13067.480  4.375666e-03
13067.500  4.664395e-03
13067.520  4.984511e-03
13067.540  5.340749e-03
13067.560  5.738778e-03
13067.580  6.185424e-03
13067.600  6.688968e-03
13067.620  7.259539e-03
13067.640  7.909618e-03
13067.660  8.654740e-03
13067.680  9.514422e-03
13067.700  1.051346e-02
13067.720  1.168373e-02
13067.740  1.306675e-02
13067.760  1.471743e-02
13067.780  1.670952e-02
13067.800  1.914398e-02
13067.820  2.216186e-02
13067.840  2.596498e-02
13067.860  3.085265e-02
13067.880  3.727155e-02
13067.900  4.593230e-02
13067.920  5.800056e-02
13067.940  7.549417e-02
13067.960  1.021273e-01
13067.980  1.452470e-01
13068.000  2.204985e-01
13068.020  3.622343e-01
13068.040  6.299323e-01
13068.060  1.003313e+00
13068.080  1.142621e+00
13068.100  8.523607e-01
13068.120  5.020696e-01
13068.140  2.930819e-01
13068.160  1.844148e-01
13068.180  1.250424e-01
13068.200  8.992098e-02
13068.220  6.764704e-02
13068.240  5.270776e-02
13068.260  4.222991e-02
13068.280  3.461124e-02
13068.300  2.890351e-02
13068.320  2.452589e-02
13068.340  2.109757e-02
13068.360  1.836786e-02
13068.380  1.616699e-02
13068.400  1.438150e-02
13068.420  1.294208e-02
13068.440  1.179646e-02
13068.460  1.080953e-02
13068.480  9.821740e-03
13068.500  8.904119e-03
13068.520  8.139585e-03
13068.540  7.504515e-03
13068.560  6.964087e-03
13068.580  6.496508e-03
13068.600  6.087945e-03
13068.620  5.728686e-03
13068.640  5.411410e-03
13068.660  5.134345e-03
13068.680  4.884881e-03
13068.700  4.663194e-03
13068.720  4.466149e-03
13068.740  4.291145e-03
13068.760  4.136037e-03
13068.780  3.999070e-03
13068.800  3.878845e-03
13068.820  3.774310e-03
13068.840  3.684782e-03
13068.860  3.610000e-03
13068.880  3.550291e-03
13068.900  3.506884e-03
13068.920  3.482548e-03
13068.940  3.482994e-03
13068.960  3.520155e-03
13068.980  3.620310e-03
13069.000  3.843696e-03
13069.020  4.306885e-03
13069.040  5.015958e-03
13069.060  5.336892e-03
13069.080  4.812846e-03
13069.100  4.174187e-03
13069.120  3.824306e-03
13069.140  3.673472e-03
13069.160  3.622330e-03
13069.180  3.624802e-03
13069.200  3.660890e-03
13069.220  3.721556e-03
13069.240  3.802665e-03
13069.260  3.902516e-03
13069.280  4.020761e-03
13069.300  4.157921e-03
13069.320  4.315140e-03
13069.340  4.494110e-03
13069.360  4.697042e-03
13069.380  4.926702e-03
13069.400  5.186478e-03
13069.420  5.480488e-03
13069.440  5.813730e-03
13069.460  6.192278e-03
13069.480  6.623550e-03
13069.500  7.116653e-03
13069.520  7.682849e-03
13069.540  8.336183e-03
13069.560  9.094329e-03
13069.580  9.979772e-03
13069.600  1.102144e-02
13069.620  1.225707e-02
13069.640  1.373654e-02
13069.660  1.552695e-02
13069.680  1.772019e-02
13069.700  2.044471e-02
13069.720  2.388446e-02
13069.740  2.831244e-02
13069.760  3.413648e-02
13069.780  4.200628e-02
13069.800  5.298932e-02
13069.820  6.893794e-02
13069.840  9.327387e-02
13069.860  1.328002e-01
13069.880  2.021379e-01
13069.900  3.339192e-01
13069.920  5.864693e-01
13069.940  9.440863e-01
13069.960  1.076811e+00
13069.980  7.952186e-01
13070.000  4.625929e-01
13070.020  2.679634e-01
13070.040  1.679823e-01
13070.060  1.136871e-01
13070.080  8.166521e-02
13070.100  6.138777e-02
13070.120  4.779770e-02
13070.140  3.826968e-02
13070.160  3.134274e-02
13070.180  2.614869e-02
13070.200  2.215450e-02
13070.220  1.901731e-02
13070.240  1.651029e-02
13070.260  1.447627e-02
13070.280  1.280391e-02
13070.300  1.141232e-02
13070.320  1.024194e-02
13070.340  9.248217e-03
13070.360  8.397318e-03
13070.380  7.663158e-03
13070.400  7.025377e-03
13070.420  6.467870e-03
13070.440  5.977813e-03
13070.460  5.544879e-03
13070.480  5.160700e-03
13070.500  4.818462e-03
13070.520  4.512610e-03
13070.540  4.238643e-03
13070.560  3.992991e-03
13070.580  3.772998e-03
13070.600  3.577066e-03
13070.620  3.405145e-03
13070.640  3.260025e-03
13070.660  3.150542e-03
13070.680  3.096595e-03
13070.700  3.112959e-03
13070.720  3.111403e-03
13070.740  2.943087e-03
13070.760  2.698557e-03
13070.780  2.513685e-03
13070.800  2.395553e-03
13070.820  2.326159e-03
13070.840  2.305179e-03
13070.860  2.356201e-03
13070.880  2.544278e-03
13070.900  2.981588e-03
13070.920  3.568521e-03
13070.940  3.595365e-03
13070.960  2.930292e-03
13070.980  2.315082e-03
13071.000  1.961114e-03
13071.020  1.759140e-03
13071.040  1.629676e-03
13071.060  1.536931e-03
13071.080  1.464742e-03
13071.100  1.405185e-03
13071.120  1.354036e-03
13071.140  1.308868e-03
13071.160  1.268192e-03
13071.180  1.231052e-03
13071.200  1.196789e-03
13071.220  1.164941e-03
13071.240  1.135165e-03
13071.260  1.107201e-03
13071.280  1.080845e-03
13071.300  1.055934e-03
13071.320  1.032331e-03
13071.340  1.009925e-03
13071.360  9.886195e-04
13071.380  9.683310e-04
13071.400  9.489869e-04
13071.420  9.305237e-04
13071.440  9.128840e-04
13071.460  8.960168e-04
13071.480  8.798759e-04
13071.500  8.644193e-04
13071.520  8.496089e-04
13071.540  8.354096e-04
13071.560  8.217892e-04
13071.580  8.087182e-04
13071.600  7.961690e-04
13071.620  7.841163e-04
13071.640  7.725364e-04
13071.660  7.614075e-04
13071.680  7.507090e-04
13071.700  7.404219e-04
13071.720  7.305284e-04
13071.740  7.210118e-04
13071.760  7.118565e-04
13071.780  7.030480e-04
13071.800  6.945724e-04
13071.820  6.864171e-04
13071.840  6.785701e-04
13071.860  6.710200e-04
13071.880  6.637564e-04
13071.900  6.567695e-04
13071.920  6.500501e-04
13071.940  6.435898e-04
13071.960  6.373805e-04
13071.980  6.314151e-04
13072.000  6.256868e-04
13072.020  6.201897e-04
13072.040  6.149182e-04
13072.060  6.098677e-04
13072.080  6.050340e-04
13072.100  6.004139e-04
13072.120  5.960049e-04
13072.140  5.918056e-04
13072.160  5.878154e-04
13072.180  5.840372e-04
13072.200  5.804701e-04
13072.220  5.771204e-04
13072.240  5.739954e-04
13072.260  5.711058e-04
13072.280  5.684668e-04
13072.300  5.660999e-04
13072.320  5.640356e-04
13072.340  5.623168e-04
13072.360  5.610132e-04
13072.380  5.602001e-04
13072.400  5.600226e-04
13072.420  5.606903e-04
13072.440  5.625444e-04
13072.460  5.661601e-04
13072.480  5.725651e-04
13072.500  5.837262e-04
13072.520  6.037118e-04
13072.540  6.415392e-04
13072.560  7.164024e-04
13072.580  8.483452e-04
13072.600  9.700711e-04
13072.620  9.267521e-04
13072.640  7.808257e-04
13072.660  6.745921e-04
13072.680  6.194126e-04
13072.700  5.911693e-04
13072.720  5.760112e-04
13072.740  5.677819e-04
13072.760  5.636966e-04
13072.780  5.624488e-04
13072.800  5.634502e-04
13072.820  5.665198e-04
13072.840  5.717664e-04
13072.860  5.795762e-04
13072.880  5.906812e-04
13072.900  6.063045e-04
13072.920  6.285286e-04
13072.940  6.609606e-04
13072.960  7.101853e-04
13072.980  7.890400e-04
13073.000  9.244694e-04
13073.020  1.175955e-03
13073.040  1.658936e-03
13073.060  2.416925e-03
13073.080  2.887763e-03
13073.100  2.428331e-03
13073.120  1.669851e-03
13073.140  1.184208e-03
13073.160  9.317835e-04
13073.180  7.965005e-04
13073.200  7.182528e-04
13073.220  6.698047e-04
13073.240  6.381788e-04
13073.260  6.167075e-04
13073.280  6.017182e-04
13073.300  5.910605e-04
13073.320  5.834267e-04
13073.340  5.779663e-04
13073.360  5.741198e-04
13073.380  5.715048e-04
13073.400  5.698530e-04
13073.420  5.689718e-04
13073.440  5.687206e-04
13073.460  5.689945e-04
13073.480  5.697147e-04
13073.500  5.708206e-04
13073.520  5.722657e-04
13073.540  5.740137e-04
13073.560  5.760360e-04
13073.580  5.783104e-04
13073.600  5.808190e-04
13073.620  5.835480e-04
13073.640  5.864862e-04
13073.660  5.896251e-04
13073.680  5.929580e-04
13073.700  5.964800e-04
13073.720  6.001873e-04
13073.740  6.040775e-04
13073.760  6.081491e-04
13073.780  6.124014e-04
13073.800  6.168346e-04
13073.820  6.214576e-04
13073.840  6.262553e-04
13073.860  6.360264e-04
13073.880  6.412039e-04
13073.900  6.465718e-04
13073.920  6.521335e-04
13073.940  6.578927e-04
13073.960  6.638538e-04
13073.980  6.700217e-04
13074.000  6.764014e-04
13074.020  6.829987e-04
13074.040  6.898198e-04
13074.060  6.968713e-04
13074.080  7.041604e-04
13074.100  7.116949e-04
13074.120  7.194830e-04
13074.140  7.275353e-04
13074.160  7.358582e-04
13074.180  7.444643e-04
13074.200  7.533646e-04
13074.220  7.625714e-04
13074.240  7.720981e-04
13074.260  7.819594e-04
13074.280  7.921712e-04
13074.300  8.027514e-04
13074.320  8.137197e-04
13074.340  8.250981e-04
13074.360  8.369116e-04
13074.380  8.491887e-04
13074.400  8.619621e-04
13074.420  8.752705e-04
13074.440  8.891595e-04
13074.460  9.036844e-04
13074.480  9.189123e-04
13074.500  9.349323e-04
13074.520  9.518553e-04
13074.540  9.698318e-04
13074.560  9.890717e-04
13074.580  1.009874e-03
13074.600  1.032697e-03
13074.620  1.058266e-03
13074.640  1.087817e-03
13074.660  1.123611e-03
13074.680  1.170136e-03
13074.700  1.237078e-03
13074.720  1.345469e-03
13074.740  1.524974e-03
13074.760  1.728350e-03
13074.780  1.760627e-03
13074.800  1.630496e-03
13074.820  1.535555e-03
13074.840  1.523123e-03
13074.860  1.574001e-03
13074.880  1.689555e-03
13074.900  1.908345e-03
13074.920  2.326820e-03
13074.940  3.037552e-03
13074.960  3.654580e-03
13074.980  3.408857e-03
13075.000  2.700891e-03
13075.020  2.218716e-03
13075.040  1.987357e-03
13075.060  1.885570e-03
13075.080  1.846750e-03
13075.100  1.841187e-03
13075.120  1.855111e-03
13075.140  1.881658e-03
13075.160  1.917186e-03
13075.180  1.959673e-03
13075.200  2.007968e-03
13075.220  2.061435e-03
13075.240  2.119738e-03
13075.260  2.182743e-03
13075.280  2.250456e-03
13075.300  2.322987e-03
13075.320  2.400524e-03
13075.340  2.483330e-03
13075.360  2.571726e-03
13075.380  2.666099e-03
13075.400  2.766895e-03
13075.420  2.874628e-03
13075.440  2.989881e-03
13075.460  3.113314e-03
13075.480  3.245675e-03
13075.500  3.386818e-03
13075.520  3.539682e-03
13075.540  3.704358e-03
13075.560  3.882076e-03
13075.580  4.074237e-03
13075.600  4.282440e-03
13075.620  4.508512e-03
13075.640  4.754559e-03
13075.660  5.023005e-03
13075.680  5.316660e-03
13075.700  5.638790e-03
13075.720  5.993213e-03
13075.740  6.384409e-03
13075.760  6.817669e-03
13075.780  7.299277e-03
13075.800  7.836718e-03
13075.820  8.439011e-03
13075.840  9.121033e-03
13075.860  9.888157e-03
13075.880  1.076070e-02
13075.900  1.175896e-02
13075.920  1.290835e-02
13075.940  1.424104e-02
13075.960  1.579823e-02
13075.980  1.763336e-02
13076.000  1.981671e-02
13076.020  2.244221e-02
13076.040  2.563760e-02
13076.060  2.958010e-02
13076.080  3.452112e-02
13076.100  4.082666e-02
13076.120  4.905084e-02
13076.140  6.003884e-02
13076.160  7.517178e-02
13076.180  9.678518e-02
13076.200  1.290647e-01
13076.220  1.800088e-01
13076.240  2.659465e-01
13076.260  4.213652e-01
13076.280  7.085243e-01
13076.300  1.144743e+00
13076.320  1.434560e+00
13076.340  1.211619e+00
13076.360  7.678712e-01
13076.380  4.550105e-01
13076.400  2.840915e-01
13076.420  1.904233e-01
13076.440  1.355120e-01
13076.460  1.010569e-01
13076.480  7.817355e-02
13076.500  6.226075e-02
13076.520  5.077546e-02
13076.540  4.223006e-02
13076.560  3.571004e-02
13076.580  3.063963e-02
13076.600  2.663895e-02
13076.620  2.346675e-02
13076.640  2.095132e-02
13076.660  1.884860e-02
13076.680  1.690647e-02
13076.700  1.517494e-02
13076.720  1.373395e-02
13076.740  1.253601e-02
13076.760  1.152189e-02
13076.780  1.065211e-02
13076.800  9.900314e-03
13076.820  9.247818e-03
13076.840  8.681062e-03
13076.860  8.190665e-03
13076.880  7.771410e-03
13076.900  7.423551e-03
13076.920  7.156662e-03
13076.940  6.999692e-03
13076.960  7.025117e-03
13076.980  7.374906e-03
13077.000  8.053807e-03
13077.020  8.274274e-03
13077.040  7.424798e-03
13077.060  6.397236e-03
13077.080  5.738121e-03
13077.100  5.347038e-03
13077.120  5.093235e-03
13077.140  4.913161e-03
13077.160  4.777889e-03
13077.180  4.673293e-03
13077.200  4.591844e-03
13077.220  4.529221e-03
13077.240  4.482794e-03
13077.260  4.450920e-03
13077.280  4.432536e-03
13077.300  4.426986e-03
13077.320  4.433900e-03
13077.340  4.452195e-03
13077.360  4.483775e-03
13077.380  4.527903e-03
13077.400  4.584930e-03
13077.420  4.655359e-03
13077.440  4.739850e-03
13077.460  4.839228e-03
13077.480  4.954502e-03
13077.500  5.086883e-03
13077.520  5.237809e-03
13077.540  5.408985e-03
13077.560  5.602421e-03
13077.580  5.820479e-03
13077.600  6.065952e-03
13077.620  6.342133e-03
13077.640  6.652923e-03
13077.660  7.002956e-03
13077.680  7.397761e-03
13077.700  7.843970e-03
13077.720  8.349578e-03
13077.740  8.924287e-03
13077.760  9.579956e-03
13077.780  1.033119e-02
13077.800  1.119612e-02
13077.820  1.219750e-02
13077.840  1.336413e-02
13077.860  1.473294e-02
13077.880  1.635183e-02
13077.900  1.828388e-02
13077.920  2.061337e-02
13077.940  2.345503e-02
13077.960  2.696806e-02
13077.980  3.137846e-02
13078.000  3.701825e-02
13078.020  4.437781e-02
13078.040  5.422713e-02
13078.060  6.780963e-02
13078.080  8.723668e-02
13078.100  1.163030e-01
13078.120  1.622923e-01
13078.140  2.401870e-01
13078.160  3.820774e-01
13078.180  6.475744e-01
13078.200  1.057922e+00
13078.220  1.334591e+00
13078.240  1.122485e+00
13078.260  7.038469e-01
13078.280  4.133861e-01
13078.300  2.568166e-01
13078.320  1.716724e-01
13078.340  1.219702e-01
13078.360  9.085844e-02
13078.380  7.022514e-02
13078.400  5.588543e-02
13078.420  4.552850e-02
13078.440  3.781252e-02
13078.460  3.191616e-02
13078.480  2.731585e-02
13078.500  2.365763e-02
13078.520  2.070188e-02
13078.540  1.828078e-02
13078.560  1.627419e-02
13078.580  1.459459e-02
13078.600  1.317763e-02
13078.620  1.197626e-02
13078.640  1.095794e-02
13078.660  1.010506e-02
13078.680  9.417687e-03
13078.700  8.894854e-03
13078.720  8.433042e-03
13078.740  7.849303e-03
13078.760  7.208445e-03
13078.780  6.671623e-03
13078.800  6.262903e-03
13078.820  5.968953e-03
13078.840  5.808560e-03
13078.860  5.860266e-03
13078.880  6.255684e-03
13078.900  6.818032e-03
13078.920  6.640523e-03
13078.940  5.644496e-03
13078.960  4.748339e-03
13078.980  4.188056e-03
13079.000  3.826743e-03
13079.020  3.565702e-03
13079.040  3.359366e-03
13079.060  3.186488e-03
13079.080  3.036237e-03
13079.100  2.902557e-03
13079.120  2.781768e-03
13079.140  2.671438e-03
13079.160  2.569900e-03
13079.180  2.475914e-03
13079.200  2.388535e-03
13079.220  2.307012e-03
13079.240  2.230735e-03
13079.260  2.159192e-03
13079.280  2.091951e-03
13079.300  2.028637e-03
13079.320  1.968926e-03
13079.340  1.912530e-03
13079.360  1.859196e-03
13079.380  1.808696e-03
13079.400  1.760828e-03
13079.420  1.715406e-03
13079.440  1.672265e-03
13079.460  1.631254e-03
13079.480  1.592234e-03
13079.500  1.555080e-03
13079.520  1.519676e-03
13079.540  1.485917e-03
13079.560  1.453704e-03
13079.580  1.422948e-03
13079.600  1.393565e-03
13079.620  1.365480e-03
13079.640  1.338620e-03
13079.660  1.312921e-03
13079.680  1.288320e-03
13079.700  1.264761e-03
13079.720  1.242191e-03
13079.740  1.220561e-03
13079.760  1.199825e-03
13079.780  1.179940e-03
13079.800  1.160867e-03
13079.820  1.142567e-03
13079.840  1.125007e-03
13079.860  1.108154e-03
13079.880  1.091978e-03
13079.900  1.076450e-03
13079.920  1.061545e-03
13079.940  1.047237e-03
13079.960  1.033505e-03
13079.980  1.020327e-03
13080.000  1.007684e-03
13080.020  9.955586e-04
13080.040  9.839336e-04
13080.060  9.727948e-04
13080.080  9.621292e-04
13080.100  9.519253e-04
13080.120  9.421734e-04
13080.140  9.328657e-04
13080.160  9.239964e-04
13080.180  9.155619e-04
13080.200  9.075615e-04
13080.220  8.999973e-04
13080.240  8.928753e-04
13080.260  8.862062e-04
13080.280  8.800064e-04
13080.300  8.743002e-04
13080.320  8.691218e-04
13080.340  8.645195e-04
13080.360  8.605608e-04
13080.380  8.573498e-04
13080.400  8.550074e-04
13080.420  8.537454e-04
13080.440  8.538673e-04
13080.460  8.558542e-04
13080.480  8.604947e-04
13080.500  8.691588e-04
13080.520  8.843891e-04
13080.540  9.112554e-04
13080.560  9.604866e-04
13080.580  1.053556e-03
13080.600  1.211217e-03
13080.620  1.366791e-03
13080.640  1.340525e-03
13080.660  1.186069e-03
13080.680  1.069559e-03
13080.700  1.020550e-03
13080.720  1.017571e-03
13080.740  1.050470e-03
13080.760  1.124524e-03
13080.780  1.262963e-03
13080.800  1.521125e-03
13080.820  2.010601e-03
13080.840  2.829860e-03
13080.860  3.581063e-03
13080.880  3.373624e-03
13080.900  2.487557e-03
13080.920  1.776977e-03
13080.940  1.379645e-03
13080.960  1.163852e-03
13080.980  1.039055e-03
13081.000  9.616684e-04
13081.020  9.107782e-04
13081.040  8.757130e-04
13081.060  8.506526e-04
13081.080  8.322222e-04
13081.100  8.183880e-04
13081.120  8.078366e-04
13081.140  7.997099e-04
13081.160  7.934242e-04
13081.180  7.885717e-04
13081.200  7.848607e-04
13081.220  7.820781e-04
13081.240  7.800657e-04
13081.260  7.787040e-04
13081.280  7.779013e-04
13081.300  7.775870e-04
13081.320  7.777054e-04
13081.340  7.782127e-04
13081.360  7.790743e-04
13081.380  7.802621e-04
13081.400  7.817539e-04
13081.420  7.835317e-04
13081.440  7.855809e-04
13081.460  7.878900e-04
13081.480  7.904475e-04
13081.500  7.932506e-04
13081.520  7.962914e-04
13081.540  7.995656e-04
13081.560  8.030703e-04
13081.580  8.068033e-04
13081.600  8.107636e-04
13081.620  8.149510e-04
13081.640  8.193660e-04
13081.660  8.240096e-04
13081.680  8.288836e-04
13081.700  8.339904e-04
13081.720  8.393330e-04
13081.740  8.449147e-04
13081.760  8.507396e-04
13081.780  8.568121e-04
13081.800  8.631374e-04
13081.820  8.697209e-04
13081.840  8.765688e-04
13081.860  8.836877e-04
13081.880  8.910850e-04
13081.900  8.987685e-04
13081.920  9.067468e-04
13081.940  9.150292e-04
13081.960  9.236257e-04
13081.980  9.325473e-04
13082.000  9.418059e-04
13082.020  9.514143e-04
13082.040  9.613868e-04
13082.060  9.717388e-04
13082.080  9.824873e-04
13082.100  9.936511e-04
13082.120  1.005251e-03
13082.140  1.017311e-03
13082.160  1.029858e-03
13082.180  1.042921e-03
13082.200  1.056533e-03
13082.220  1.070737e-03
13082.240  1.085579e-03
13082.260  1.101116e-03
13082.280  1.117417e-03
13082.300  1.134567e-03
13082.320  1.152676e-03
13082.340  1.171884e-03
13082.360  1.192380e-03
13082.380  1.214435e-03
13082.400  1.238408e-03
13082.420  1.264870e-03
13082.440  1.294710e-03
13082.460  1.329416e-03
13082.480  1.371665e-03
13082.500  1.426663e-03
13082.520  1.505388e-03
13082.540  1.631406e-03
13082.560  1.840639e-03
13082.580  2.096126e-03
13082.600  2.175516e-03
13082.620  2.038580e-03
13082.640  1.927816e-03
13082.660  1.924974e-03
13082.680  2.024279e-03
13082.700  2.247038e-03
13082.720  2.679472e-03
13082.740  3.434072e-03
13082.760  4.243301e-03
13082.780  4.228766e-03
13082.800  3.452335e-03
13082.820  2.780334e-03
13082.840  2.420420e-03
13082.860  2.248389e-03
13082.880  2.170549e-03
13082.900  2.142022e-03
13082.920  2.141683e-03
13082.940  2.158980e-03
13082.960  2.188299e-03
13082.980  2.226495e-03
13083.000  2.271739e-03
13083.020  2.322965e-03
13083.040  2.379542e-03
13083.060  2.441131e-03
13083.080  2.507581e-03
13083.100  2.578877e-03
13083.120  2.655101e-03
13083.140  2.736418e-03
13083.160  2.823058e-03
13083.180  2.915314e-03
13083.200  3.013534e-03
13083.220  3.118126e-03
13083.240  3.229556e-03
13083.260  3.348355e-03
13083.280  3.475119e-03
13083.300  3.610522e-03
13083.320  3.755318e-03
13083.340  3.910364e-03
13083.360  4.076614e-03
13083.380  4.255150e-03
13083.400  4.447189e-03
13083.420  4.654113e-03
13083.440  4.877487e-03
13083.460  5.119092e-03
13083.480  5.380963e-03
13083.500  5.665430e-03
13083.520  5.975171e-03
13083.540  6.313283e-03
13083.560  6.683331e-03
13083.580  7.089491e-03
13083.600  7.536636e-03
13083.620  8.030491e-03
13083.640  8.577822e-03
13083.660  9.186667e-03
13083.680  9.866637e-03
13083.700  1.062930e-02
13083.720  1.148866e-02
13083.740  1.246186e-02
13083.760  1.356995e-02
13083.780  1.483915e-02
13083.800  1.630232e-02
13083.820  1.800113e-02
13083.840  1.998910e-02
13083.860  2.233576e-02
13083.880  2.513285e-02
13083.900  2.850330e-02
13083.920  3.261485e-02
13083.940  3.770102e-02
13083.960  4.409452e-02
13083.980  5.228616e-02
13084.000  6.300398e-02
13084.020  7.739706e-02
13084.040  9.733131e-02
13084.060  1.259939e-01
13084.080  1.691452e-01
13084.100  2.378791e-01
13084.120  3.548980e-01
13084.140  5.671152e-01
13084.160  9.491638e-01
13084.180  1.472255e+00
13084.200  1.711449e+00
13084.220  1.356500e+00
13084.240  8.446197e-01
13084.260  5.070110e-01
13084.280  3.223449e-01
13084.300  2.193018e-01
13084.320  1.578342e-01
13084.340  1.187251e-01
13084.360  9.246932e-02
13084.380  7.405927e-02
13084.400  6.068911e-02
13084.420  5.069806e-02
13084.440  4.307722e-02
13084.460  3.718345e-02
13084.480  3.259613e-02
13084.500  2.891160e-02
13084.520  2.572769e-02
13084.540  2.302247e-02
13084.560  2.092030e-02
13084.580  1.947074e-02
13084.600  1.874413e-02
13084.620  1.835296e-02
13084.640  1.708021e-02
13084.660  1.498182e-02
13084.680  1.318136e-02
13084.700  1.189615e-02
13084.720  1.093591e-02
13084.740  1.016803e-02
13084.760  9.526453e-03
13084.780  8.976559e-03
13084.800  8.498026e-03
13084.820  8.077647e-03
13084.840  7.706132e-03
13084.860  7.376556e-03
13084.880  7.083556e-03
13084.900  6.822838e-03
13084.920  6.590908e-03
13084.940  6.384881e-03
13084.960  6.202351e-03
13084.980  6.041302e-03
13085.000  5.900038e-03
13085.020  5.777133e-03
13085.040  5.671395e-03
13085.060  5.581829e-03
13085.080  5.507622e-03
13085.100  5.448116e-03
13085.120  5.402800e-03
13085.140  5.371296e-03
13085.160  5.353353e-03
13085.180  5.348842e-03
13085.200  5.357751e-03
13085.220  5.380188e-03
13085.240  5.416380e-03
13085.260  5.466679e-03
13085.280  5.531569e-03
13085.300  5.611676e-03
13085.320  5.707777e-03
13085.340  5.820817e-03
13085.360  5.951932e-03
13085.380  6.102470e-03
13085.400  6.274022e-03
13085.420  6.468460e-03
13085.440  6.687977e-03
13085.460  6.935148e-03
13085.480  7.212995e-03
13085.500  7.525072e-03
13085.520  7.875566e-03
13085.540  8.269436e-03
13085.560  8.712551e-03
13085.580  9.211930e-03
13085.600  9.775984e-03
13085.620  1.041485e-02
13085.640  1.114085e-02
13085.660  1.196902e-02
13085.680  1.291792e-02
13085.700  1.401059e-02
13085.720  1.527595e-02
13085.740  1.675067e-02
13085.760  1.848179e-02
13085.780  2.053041e-02
13085.800  2.297703e-02
13085.820  2.592943e-02
13085.840  2.953444e-02
13085.860  3.399618e-02
13085.880  3.960487e-02
13085.900  4.678767e-02
13085.920  5.617661e-02
13085.940  6.876619e-02
13085.960  8.616545e-02
13085.980  1.111112e-01
13086.000  1.485258e-01
13086.020  2.078386e-01
13086.040  3.082653e-01
13086.060  4.896784e-01
13086.080  8.185266e-01
13086.100  1.287226e+00
13086.120  1.542256e+00
13086.140  1.257973e+00
13086.160  7.921375e-01
13086.180  4.744798e-01
13086.200  2.999822e-01
13086.220  2.030570e-01
13086.240  1.455648e-01
13086.260  1.091636e-01
13086.280  8.482339e-02
13086.300  6.783060e-02
13086.320  5.557442e-02
13086.340  4.651697e-02
13086.360  3.963225e-02
13086.380  3.408929e-02
13086.400  2.950206e-02
13086.420  2.579803e-02
13086.440  2.284557e-02
13086.460  2.050529e-02
13086.480  1.871998e-02
13086.500  1.754176e-02
13086.520  1.699020e-02
13086.540  1.637810e-02
13086.560  1.475268e-02
13086.580  1.278350e-02
13086.600  1.126171e-02
13086.620  1.015484e-02
13086.640  9.293805e-03
13086.660  8.583593e-03
13086.680  7.976541e-03
13086.700  7.446431e-03
13086.720  6.977115e-03
13086.740  6.557659e-03
13086.760  6.180116e-03
13086.780  5.838431e-03
13086.800  5.527785e-03
13086.820  5.244267e-03
13086.840  4.984635e-03
13086.860  4.746160e-03
13086.880  4.526524e-03
13086.900  4.323735e-03
13086.920  4.136073e-03
13086.940  3.962038e-03
13086.960  3.800321e-03
13086.980  3.649771e-03
13087.000  3.509371e-03
13087.020  3.381772e-03
13087.040  3.259078e-03
13087.060  3.144119e-03
13087.080  3.036259e-03
13087.100  2.934924e-03
13087.120  2.839600e-03
13087.140  2.749822e-03
13087.160  2.665172e-03
13087.180  2.585271e-03
13087.200  2.509774e-03
13087.220  2.438369e-03
13087.240  2.370771e-03
13087.260  2.306721e-03
13087.280  2.245980e-03
13087.300  2.188332e-03
13087.320  2.133579e-03
13087.340  2.081538e-03
13087.360  2.032043e-03
13087.380  1.984936e-03
13087.400  1.940078e-03
13087.420  1.897338e-03
13087.440  1.856595e-03
13087.460  1.817739e-03
13087.480  1.780666e-03
13087.500  1.745282e-03
13087.520  1.711500e-03
13087.540  1.679238e-03
13087.560  1.648423e-03
13087.580  1.618985e-03
13087.600  1.590863e-03
13087.620  1.563996e-03
13087.640  1.538337e-03
13087.660  1.513835e-03
13087.680  1.490448e-03
13087.700  1.468138e-03
13087.720  1.446873e-03
13087.740  1.426625e-03
13087.760  1.407371e-03
13087.780  1.389096e-03
13087.800  1.371789e-03
13087.820  1.355449e-03
13087.840  1.340084e-03
13087.860  1.325709e-03
13087.880  1.312356e-03
13087.900  1.300072e-03
13087.920  1.288925e-03
13087.940  1.279010e-03
13087.960  1.270461e-03
13087.980  1.263461e-03
13088.000  1.258265e-03
13088.020  1.255228e-03
13088.040  1.254858e-03
13088.060  1.257894e-03
13088.080  1.265441e-03
13088.100  1.279202e-03
13088.120  1.301692e-03
13088.140  1.336335e-03
13088.160  1.388577e-03
13088.180  1.470401e-03
13088.200  1.605473e-03
13088.220  1.839719e-03
13088.240  2.267347e-03
13088.260  3.049640e-03
13088.280  4.212337e-03
13088.300  4.994840e-03
13088.320  4.436095e-03
13088.340  3.230573e-03
13088.360  2.345062e-03
13088.380  1.850233e-03
13088.400  1.575159e-03
13088.420  1.411745e-03
13088.440  1.307627e-03
13088.460  1.237209e-03
13088.480  1.187199e-03
13088.500  1.150243e-03
13088.520  1.122021e-03
13088.540  1.099905e-03
13088.560  1.082185e-03
13088.580  1.067735e-03
13088.600  1.055782e-03
13088.620  1.045785e-03
13088.640  1.037359e-03
13088.660  1.030209e-03
13088.680  1.024124e-03
13088.700  1.018943e-03
13088.720  1.014540e-03
13088.740  1.010818e-03
13088.760  1.007699e-03
13088.780  1.005123e-03
13088.800  1.003039e-03
13088.820  1.001409e-03
13088.840  1.000199e-03
13088.860  9.993817e-04
13088.880  9.989365e-04
13088.900  9.988448e-04
13088.920  9.990917e-04
13088.940  9.996649e-04
13088.960  1.000554e-03
13088.980  1.001752e-03
13089.000  1.003251e-03
13089.020  1.005046e-03
13089.040  1.007133e-03
13089.060  1.009510e-03
13089.080  1.012174e-03
13089.100  1.015125e-03
13089.120  1.020696e-03
13089.140  1.024223e-03
13089.160  1.028037e-03
13089.180  1.032141e-03
13089.200  1.036537e-03
13089.220  1.041227e-03
13089.240  1.046216e-03
13089.260  1.051508e-03
13089.280  1.057108e-03
13089.300  1.063021e-03
13089.320  1.069253e-03
13089.340  1.075812e-03
13089.360  1.082705e-03
13089.380  1.089940e-03
13089.400  1.097527e-03
13089.420  1.105474e-03
13089.440  1.113795e-03
13089.460  1.122499e-03
13089.480  1.131602e-03
13089.500  1.141117e-03
13089.520  1.151060e-03
13089.540  1.161450e-03
13089.560  1.172306e-03
13089.580  1.183658e-03
13089.600  1.195517e-03
13089.620  1.207919e-03
13089.640  1.220895e-03
13089.660  1.234485e-03
13089.680  1.248733e-03
13089.700  1.263690e-03
13089.720  1.279420e-03
13089.740  1.295999e-03
13089.760  1.313523e-03
13089.780  1.332113e-03
13089.800  1.351927e-03
13089.820  1.373174e-03
13089.840  1.396145e-03
13089.860  1.421251e-03
13089.880  1.449103e-03
13089.900  1.480655e-03
13089.920  1.517477e-03
13089.940  1.562333e-03
13089.960  1.620468e-03
13089.980  1.702676e-03
13090.000  1.831904e-03
13090.020  2.047213e-03
13090.040  2.338105e-03
13090.060  2.490677e-03
13090.080  2.374998e-03
13090.100  2.233585e-03
13090.120  2.218288e-03
13090.140  2.334183e-03
13090.160  2.607628e-03
13090.180  3.137152e-03
13090.200  4.013535e-03
13090.220  4.830713e-03
13090.240  4.674499e-03
13090.260  3.794427e-03
13090.280  3.074989e-03
13090.300  2.684094e-03
13090.320  2.490408e-03
13090.340  2.397900e-03
13090.360  2.359424e-03
13090.380  2.352213e-03
13090.400  2.364657e-03
13090.420  2.390471e-03
13090.440  2.426075e-03
13090.460  2.469376e-03
13090.480  2.519092e-03
13090.500  2.574460e-03
13090.520  2.635037e-03
13090.540  2.700591e-03
13090.560  2.771042e-03
13090.580  2.846417e-03
13090.600  2.926829e-03
13090.620  3.012460e-03
13090.640  3.103554e-03
13090.660  3.200411e-03
13090.680  3.303385e-03
13090.700  3.412886e-03
13090.720  3.529380e-03
13090.740  3.653394e-03
13090.760  3.785521e-03
13090.780  3.926423e-03
13090.800  4.076848e-03
13090.820  4.237628e-03
13090.840  4.409701e-03
13090.860  4.594117e-03
13090.880  4.792061e-03
13090.900  5.004864e-03
13090.920  5.234035e-03
13090.940  5.481281e-03
13090.960  5.748543e-03
13090.980  6.038033e-03
13091.000  6.352281e-03
13091.020  6.694191e-03
13091.040  7.067110e-03
13091.060  7.474908e-03
13091.080  7.922085e-03
13091.100  8.413890e-03
13091.120  8.956481e-03
13091.140  9.557120e-03
13091.160  1.022442e-02
13091.180  1.096864e-02
13091.200  1.180212e-02
13091.220  1.273977e-02
13091.240  1.379972e-02
13091.260  1.500426e-02
13091.280  1.638099e-02
13091.300  1.796439e-02
13091.320  1.979806e-02
13091.340  2.193766e-02
13091.360  2.445522e-02
13091.380  2.744524e-02
13091.400  3.103356e-02
13091.420  3.539074e-02
13091.440  4.075240e-02
13091.460  4.745125e-02
13091.480  5.596893e-02
13091.500  6.702967e-02
13091.520  8.172971e-02
13091.540  1.018432e-01
13091.560  1.303344e-01
13091.580  1.724367e-01
13091.600  2.379595e-01
13091.620  3.464509e-01
13091.640  5.381653e-01
13091.660  8.860636e-01
13091.680  1.428403e+00
13091.700  1.864667e+00
13091.720  1.686071e+00
13091.740  1.124666e+00
13091.760  6.783178e-01
13091.780  4.235799e-01
13091.800  2.827764e-01
13091.820  2.005871e-01
13091.840  1.496103e-01
13091.860  1.165353e-01
13091.880  9.415915e-02
13091.900  7.741261e-02
13091.920  6.380959e-02
13091.940  5.326558e-02
13091.960  4.538465e-02
13091.980  3.935492e-02
13092.000  3.440820e-02
13092.020  3.020001e-02
13092.040  2.672560e-02
13092.060  2.388198e-02
13092.080  2.152029e-02
13092.100  1.952939e-02
13092.120  1.783201e-02
13092.140  1.637214e-02
13092.160  1.510748e-02
13092.180  1.400523e-02
13092.200  1.303950e-02
13092.220  1.218948e-02
13092.240  1.143834e-02
13092.260  1.077228e-02
13092.280  1.017991e-02
13092.300  9.651767e-03
13092.320  9.179940e-03
13092.340  8.757766e-03
13092.360  8.379617e-03
13092.380  8.040715e-03
13092.400  7.736991e-03
13092.420  7.464967e-03
13092.440  7.221667e-03
13092.460  7.004537e-03
13092.480  6.811393e-03
13092.500  6.640349e-03
13092.520  6.489803e-03
13092.540  6.358387e-03
13092.560  6.244944e-03
13092.580  6.148500e-03
13092.600  6.068255e-03
13092.620  6.003556e-03
13092.640  5.953898e-03
13092.660  5.918906e-03
13092.680  5.898331e-03
13092.700  5.892048e-03
13092.720  5.900053e-03
13092.740  5.922461e-03
13092.760  5.959514e-03
13092.780  6.011578e-03
13092.800  6.079158e-03
13092.820  6.162901e-03
13092.840  6.263614e-03
13092.860  6.382277e-03
13092.880  6.520062e-03
13092.900  6.678362e-03
13092.920  6.858816e-03
13092.940  7.063350e-03
13092.960  7.294221e-03
13092.980  7.554067e-03
13093.000  7.845985e-03
13093.020  8.173602e-03
13093.040  8.541189e-03
13093.060  8.955685e-03
13093.080  9.419245e-03
13093.100  9.938561e-03
13093.120  1.052671e-02
13093.140  1.119157e-02
13093.160  1.194546e-02
13093.180  1.280336e-02
13093.200  1.378366e-02
13093.220  1.490910e-02
13093.240  1.620807e-02
13093.260  1.771632e-02
13093.280  1.947943e-02
13093.300  2.155619e-02
13093.320  2.402341e-02
13093.340  2.698302e-02
13093.360  3.057246e-02
13093.380  3.498062e-02
13093.400  4.047258e-02
13093.420  4.742938e-02
13093.440  5.641918e-02
13093.460  6.829419e-02
13093.480  8.441818e-02
13093.500  1.070405e-01
13093.520  1.400725e-01
13093.540  1.907234e-01
13093.560  2.731330e-01
13093.580  4.163589e-01
13093.600  6.767989e-01
13093.620  1.113519e+00
13093.640  1.572672e+00
13093.660  1.578019e+00
13093.680  1.122539e+00
13093.700  6.829865e-01
13093.720  4.199127e-01
13093.740  2.753667e-01
13093.760  1.924798e-01
13093.780  1.419658e-01
13093.800  1.096515e-01
13093.820  8.776186e-02
13093.840  7.123608e-02
13093.860  5.820189e-02
13093.880  4.832395e-02
13093.900  4.086584e-02
13093.920  3.508609e-02
13093.940  3.049555e-02
13093.960  2.677849e-02
13093.980  2.372184e-02
13094.000  2.117569e-02
13094.020  1.903124e-02
13094.040  1.720760e-02
13094.060  1.564346e-02
13094.080  1.429159e-02
13094.100  1.311508e-02
13094.120  1.208475e-02
13094.140  1.117726e-02
13094.160  1.037376e-02
13094.180  9.658896e-03
13094.200  9.020047e-03
13094.220  8.446771e-03
13094.240  7.930362e-03
13094.260  7.463515e-03
13094.280  7.040065e-03
13094.300  6.654780e-03
13094.320  6.303195e-03
13094.340  5.981481e-03
13094.360  5.686342e-03
13094.380  5.414924e-03
13094.400  5.164750e-03
13094.420  4.933659e-03
13094.440  4.719758e-03
13094.460  4.521388e-03
13094.480  4.337085e-03
13094.500  4.165556e-03
13094.520  4.005654e-03
13094.540  3.856361e-03
13094.560  3.716768e-03
13094.580  3.586065e-03
13094.600  3.463524e-03
13094.620  3.348498e-03
13094.640  3.240395e-03
13094.660  3.138689e-03
13094.680  3.042904e-03
13094.700  2.952611e-03
13094.720  2.867420e-03
13094.740  2.786978e-03
13094.760  2.710967e-03
13094.780  2.639098e-03
13094.800  2.571108e-03
13094.820  2.506761e-03
13094.840  2.445844e-03
13094.860  2.388166e-03
13094.880  2.333554e-03
13094.900  2.281859e-03
13094.920  2.232948e-03
13094.940  2.186712e-03
13094.960  2.143059e-03
13094.980  2.099836e-03
13095.000  2.061175e-03
13095.020  2.024976e-03
13095.040  1.991260e-03
13095.060  1.960098e-03
13095.080  1.931617e-03
13095.100  1.906029e-03
13095.120  1.883656e-03
13095.140  1.864986e-03
13095.160  1.850752e-03
13095.180  1.842067e-03
13095.200  1.840669e-03
13095.220  1.849283e-03
13095.240  1.872461e-03
13095.260  1.918070e-03
13095.280  2.000504e-03
13095.300  2.147747e-03
13095.320  2.417135e-03
13095.340  2.923084e-03
13095.360  3.813509e-03
13095.380  4.869131e-03
13095.400  5.056559e-03
13095.420  4.108743e-03
13095.440  3.083339e-03
13095.460  2.452998e-03
13095.480  2.110931e-03
13095.500  1.926696e-03
13095.520  1.837389e-03
13095.540  1.825338e-03
13095.560  1.900350e-03
13095.580  2.047513e-03
13095.600  2.112831e-03
13095.620  1.961195e-03
13095.640  1.740033e-03
13095.660  1.583773e-03
13095.680  1.490042e-03
13095.700  1.431340e-03
13095.720  1.391315e-03
13095.740  1.361891e-03
13095.760  1.338977e-03
13095.780  1.320356e-03
13095.800  1.304749e-03
13095.820  1.291367e-03
13095.840  1.279709e-03
13095.860  1.269431e-03
13095.880  1.260295e-03
13095.900  1.252129e-03
13095.920  1.244806e-03
13095.940  1.238227e-03
13095.960  1.232324e-03
13095.980  1.227036e-03
13096.000  1.222315e-03
13096.020  1.218125e-03
13096.040  1.214435e-03
13096.060  1.211219e-03
13096.080  1.208457e-03
13096.100  1.206131e-03
13096.120  1.204227e-03
13096.140  1.202733e-03
13096.160  1.201639e-03
13096.180  1.200936e-03
13096.200  1.200618e-03
13096.220  1.200680e-03
13096.240  1.201117e-03
13096.260  1.201926e-03
13096.280  1.203106e-03
13096.300  1.204655e-03
13096.320  1.206572e-03
13096.340  1.208858e-03
13096.360  1.211516e-03
13096.380  1.214545e-03
13096.400  1.217951e-03
13096.420  1.221735e-03
13096.440  1.225904e-03
13096.460  1.230462e-03
13096.480  1.235415e-03
13096.500  1.240770e-03
13096.520  1.246536e-03
13096.540  1.252721e-03
13096.560  1.259336e-03
13096.580  1.266393e-03
13096.600  1.273904e-03
13096.620  1.281883e-03
13096.640  1.290348e-03
13096.660  1.299316e-03
13096.680  1.308808e-03
13096.700  1.318848e-03
13096.720  1.329464e-03
13096.740  1.340685e-03
13096.760  1.352548e-03
13096.780  1.365096e-03
13096.800  1.378380e-03
13096.820  1.392459e-03
13096.840  1.407409e-03
13096.860  1.423321e-03
13096.880  1.440312e-03
13096.900  1.458533e-03
13096.920  1.478186e-03
13096.940  1.499544e-03
13096.960  1.522997e-03
13096.980  1.549111e-03
13097.000  1.578760e-03
13097.020  1.613358e-03
13097.040  1.655334e-03
13097.060  1.709180e-03
13097.080  1.783859e-03
13097.100  1.898221e-03
13097.120  2.087897e-03
13097.140  2.372606e-03
13097.160  2.602275e-03
13097.180  2.554201e-03
13097.200  2.384839e-03
13097.220  2.316304e-03
13097.240  2.379052e-03
13097.260  2.577771e-03
13097.280  2.976666e-03
13097.300  3.700990e-03
13097.320  4.691751e-03
13097.340  5.165255e-03
13097.360  4.541509e-03
13097.380  3.623119e-03
13097.400  3.025403e-03
13097.420  2.713756e-03
13097.440  2.557726e-03
13097.460  2.482830e-03
13097.480  2.452919e-03
13097.500  2.450012e-03
13097.520  2.464635e-03
13097.540  2.491512e-03
13097.560  2.527563e-03
13097.580  2.570958e-03
13097.600  2.620557e-03
13097.620  2.675675e-03
13097.640  2.735916e-03
13097.660  2.801071e-03
13097.680  2.871071e-03
13097.700  2.945949e-03
13097.720  3.025814e-03
13097.740  3.110847e-03
13097.760  3.201282e-03
13097.780  3.297410e-03
13097.800  3.399574e-03
13097.820  3.508166e-03
13097.840  3.623637e-03
13097.860  3.746491e-03
13097.880  3.877298e-03
13097.900  4.016693e-03
13097.920  4.165390e-03
13097.940  4.324185e-03
13097.960  4.493971e-03
13097.980  4.675747e-03
13098.000  4.870635e-03
13098.020  5.079898e-03
13098.040  5.304959e-03
13098.060  5.547427e-03
13098.080  5.809123e-03
13098.100  6.092115e-03
13098.120  6.398774e-03
13098.140  6.731797e-03
13098.160  7.094286e-03
13098.180  7.489818e-03
13098.200  7.922531e-03
13098.220  8.397234e-03
13098.240  8.919546e-03
13098.260  9.496056e-03
13098.280  1.013454e-02
13098.300  1.084423e-02
13098.320  1.163612e-02
13098.340  1.252344e-02
13098.360  1.352219e-02
13098.380  1.465185e-02
13098.400  1.593637e-02
13098.420  1.740541e-02
13098.440  1.909612e-02
13098.460  2.105541e-02
13098.480  2.334331e-02
13098.500  2.603757e-02
13098.520  2.924023e-02
13098.540  3.308743e-02
13098.560  3.776383e-02
13098.580  4.352493e-02
13098.600  5.073201e-02
13098.620  5.990886e-02
13098.640  7.184442e-02
13098.660  8.773487e-02
13098.680  1.095192e-01
13098.700  1.404413e-01
13098.720  1.862300e-01
13098.740  2.575990e-01
13098.760  3.756894e-01
13098.780  5.826405e-01
13098.800  9.474663e-01
13098.820  1.478883e+00
13098.840  1.846691e+00
13098.860  1.621593e+00
13098.880  1.082027e+00
13098.900  6.633440e-01
13098.920  4.208216e-01
13098.940  2.840060e-01
13098.960  2.027054e-01
13098.980  1.513530e-01
13099.000  1.171338e-01
13099.020  9.330284e-02
13099.040  7.610233e-02
13099.060  6.333295e-02
13099.080  5.365600e-02
13099.100  4.621050e-02
13099.120  4.025883e-02
13099.140  3.522500e-02
13099.160  3.098540e-02
13099.180  2.750486e-02
13099.200  2.463424e-02
13099.220  2.223144e-02
13099.240  2.019493e-02
13099.260  1.845204e-02
13099.280  1.694864e-02
13099.300  1.564314e-02
13099.320  1.450294e-02
13099.340  1.350206e-02
13099.360  1.261955e-02
13099.380  1.183835e-02
13099.400  1.114443e-02
13099.420  1.052621e-02
13099.440  9.973991e-03
13099.460  9.479681e-03
13099.480  9.036442e-03
13099.500  8.638483e-03
13099.520  8.280880e-03
13099.540  7.959430e-03
13099.560  7.670532e-03
13099.580  7.411098e-03
13099.600  7.178470e-03
13099.620  6.970361e-03
13099.640  6.784804e-03
13099.660  6.620107e-03
13099.680  6.474818e-03
13099.700  6.347699e-03
13099.720  6.237699e-03
13099.740  6.143939e-03
13099.760  6.065690e-03
13099.780  6.002363e-03
13099.800  5.953503e-03
13099.820  5.918776e-03
13099.840  5.897966e-03
13099.860  5.890970e-03
13099.880  5.897800e-03
13099.900  5.918581e-03
13099.920  5.953557e-03
13099.940  6.003090e-03
13099.960  6.067672e-03
13099.980  6.147929e-03
13100.000  6.244651e-03
13100.020  6.358777e-03
13100.040  6.491439e-03
13100.060  6.643975e-03
13100.080  6.817961e-03
13100.100  7.015242e-03
13100.120  7.237981e-03
13100.140  7.488705e-03
13100.160  7.770373e-03
13100.180  8.086451e-03
13100.200  8.441014e-03
13100.220  8.838862e-03
13100.240  9.285672e-03
13100.260  9.788188e-03
13100.280  1.035446e-02
13100.300  1.099416e-02
13100.320  1.171897e-02
13100.340  1.254308e-02
13100.360  1.348393e-02
13100.380  1.456305e-02
13100.400  1.580734e-02
13100.420  1.725076e-02
13100.440  1.893679e-02
13100.460  2.092187e-02
13100.480  2.328085e-02
13100.500  2.611539e-02
13100.520  2.956754e-02
13100.540  3.383551e-02
13100.560  3.915593e-02
13100.580  4.572627e-02
13100.600  5.389015e-02
13100.620  6.452140e-02
13100.640  7.895767e-02
13100.660  9.912509e-02
13100.680  1.282678e-01
13100.700  1.722802e-01
13100.720  2.424803e-01
13100.740  3.615307e-01
13100.760  5.736864e-01
13100.780  9.407261e-01
13100.800  1.407196e+00
13100.820  1.577740e+00
13100.840  1.234770e+00
13100.860  7.777461e-01
13100.880  4.752334e-01
13100.900  3.063538e-01
13100.920  2.103987e-01
13100.940  1.524045e-01
13100.960  1.151530e-01
13100.980  8.996167e-02
13101.000  7.219118e-02
13101.020  5.921290e-02
13101.040  4.945412e-02
13101.060  4.194356e-02
13101.080  3.603990e-02
13101.100  3.131690e-02
13101.120  2.748033e-02
13101.140  2.432190e-02
13101.160  2.169097e-02
13101.180  1.947639e-02
13101.200  1.759477e-02
13101.220  1.598259e-02
13101.240  1.459073e-02
13101.260  1.338080e-02
13101.280  1.232239e-02
13101.300  1.139119e-02
13101.320  1.056760e-02
13101.340  9.832419e-03
13101.360  9.178963e-03
13101.380  8.593168e-03
13101.400  8.066956e-03
13101.420  7.590855e-03
13101.440  7.159434e-03
13101.460  6.767284e-03
13101.480  6.409795e-03
13101.500  6.083020e-03
13101.520  5.783565e-03
13101.540  5.508497e-03
13101.560  5.255278e-03
13101.580  5.021696e-03
13101.600  4.805824e-03
13101.620  4.605976e-03
13101.640  4.420675e-03
13101.660  4.248625e-03
13101.680  4.088688e-03
13101.700  3.939870e-03
13101.720  3.801299e-03
13101.740  3.672221e-03
13101.760  3.551989e-03
13101.780  3.440061e-03
13101.800  3.336002e-03
13101.820  3.239488e-03
13101.840  3.150323e-03
13101.860  3.068468e-03
13101.880  2.994084e-03
13101.900  2.927608e-03
13101.920  2.869890e-03
13101.940  2.822428e-03
13101.960  2.787725e-03
13101.980  2.770112e-03
13102.000  2.777192e-03
13102.020  2.822920e-03
13102.040  2.934245e-03
13102.060  3.165437e-03
13102.080  3.621579e-03
13102.100  4.432202e-03
13102.120  5.397123e-03
13102.140  5.588651e-03
13102.160  4.704908e-03
13102.180  3.684693e-03
13102.200  3.017859e-03
13102.220  2.629219e-03
13102.240  2.392267e-03
13102.260  2.236063e-03
13102.280  2.125361e-03
13102.300  2.042171e-03
13102.320  1.976818e-03
13102.340  1.923868e-03
13102.360  1.880206e-03
13102.380  1.844172e-03
13102.400  1.815128e-03
13102.420  1.793475e-03
13102.440  1.781030e-03
13102.460  1.782130e-03
13102.480  1.806210e-03
13102.500  1.872168e-03
13102.520  2.003407e-03
13102.540  2.161502e-03
13102.560  2.177110e-03
13102.580  2.003896e-03
13102.600  1.813381e-03
13102.620  1.687994e-03
13102.640  1.611870e-03
13102.660  1.562396e-03
13102.680  1.527223e-03
13102.700  1.500268e-03
13102.720  1.478420e-03
13102.740  1.459988e-03
13102.760  1.443997e-03
13102.780  1.429848e-03
13102.800  1.417161e-03
13102.820  1.405681e-03
13102.840  1.395229e-03
13102.860  1.385679e-03
13102.880  1.376937e-03
13102.900  1.368934e-03
13102.920  1.361614e-03
13102.940  1.354934e-03
13102.960  1.348860e-03
13102.980  1.343365e-03
13103.000  1.338425e-03
13103.020  1.334022e-03
13103.040  1.330140e-03
13103.060  1.326766e-03
13103.080  1.323891e-03
13103.100  1.321504e-03
13103.120  1.319601e-03
13103.140  1.318174e-03
13103.160  1.317222e-03
13103.180  1.316739e-03
13103.200  1.316726e-03
13103.220  1.317181e-03
13103.240  1.315229e-03
13103.260  1.316632e-03
13103.280  1.320649e-03
13103.300  1.323012e-03
13103.320  1.325862e-03
13103.340  1.329207e-03
13103.360  1.333054e-03
13103.380  1.337416e-03
13103.400  1.342306e-03
13103.420  1.347737e-03
13103.440  1.353728e-03
13103.460  1.360299e-03
13103.480  1.367475e-03
13103.500  1.375284e-03
13103.520  1.383760e-03
13103.540  1.392944e-03
13103.560  1.402885e-03
13103.580  1.413644e-03
13103.600  1.425297e-03
13103.620  1.437939e-03
13103.640  1.451693e-03
13103.660  1.466725e-03
13103.680  1.483256e-03
13103.700  1.501599e-03
13103.720  1.522205e-03
13103.740  1.545757e-03
13103.760  1.573346e-03
13103.780  1.606794e-03
13103.800  1.649370e-03
13103.820  1.707358e-03
13103.840  1.793573e-03
13103.860  1.933391e-03
13103.880  2.157016e-03
13103.900  2.405719e-03
13103.920  2.462889e-03
13103.940  2.314712e-03
13103.960  2.186411e-03
13103.980  2.162472e-03
13104.000  2.232074e-03
13104.020  2.401403e-03
13104.040  2.722857e-03
13104.060  3.306243e-03
13104.080  4.199724e-03
13104.100  4.902441e-03
13104.120  4.616408e-03
13104.140  3.744414e-03
13104.160  3.066283e-03
13104.180  2.692507e-03
13104.200  2.500943e-03
13104.220  2.404914e-03
13104.240  2.360913e-03
13104.260  2.347425e-03
13104.280  2.353266e-03
13104.300  2.372288e-03
13104.320  2.400938e-03
13104.340  2.437117e-03
13104.360  2.479517e-03
13104.380  2.527345e-03
13104.400  2.580124e-03
13104.420  2.637588e-03
13104.440  2.699618e-03
13104.460  2.766205e-03
13104.480  2.837419e-03
13104.500  2.913398e-03
13104.520  2.994338e-03
13104.540  3.080487e-03
13104.560  3.172142e-03
13104.580  3.269649e-03
13104.600  3.373404e-03
13104.620  3.483854e-03
13104.640  3.601504e-03
13104.660  3.726920e-03
13104.680  3.860736e-03
13104.700  4.003661e-03
13104.720  4.156488e-03
13104.740  4.320109e-03
13104.760  4.495521e-03
13104.780  4.683846e-03
13104.800  4.886350e-03
13104.820  5.104460e-03
13104.840  5.339794e-03
13104.860  5.594189e-03
13104.880  5.869736e-03
13104.900  6.168829e-03
13104.920  6.494210e-03
13104.940  6.849041e-03
13104.960  7.236976e-03
13104.980  7.662259e-03
13105.000  8.129843e-03
13105.020  8.645537e-03
13105.040  9.216192e-03
13105.060  9.849937e-03
13105.080  1.055647e-02
13105.100  1.134744e-02
13105.120  1.223700e-02
13105.140  1.324240e-02
13105.160  1.438496e-02
13105.180  1.569129e-02
13105.200  1.719506e-02
13105.220  1.893961e-02
13105.240  2.098198e-02
13105.260  2.339956e-02
13105.280  2.630188e-02
13105.300  2.985321e-02
13105.320  3.431207e-02
13105.340  4.003629e-02
13105.360  4.713516e-02
13105.380  5.499673e-02
13105.400  6.387942e-02
13105.420  7.573748e-02
13105.440  9.249672e-02
13105.460  1.163775e-01
13105.480  1.512343e-01
13105.500  2.042056e-01
13105.520  2.889890e-01
13105.540  4.325625e-01
13105.560  6.839492e-01
13105.580  1.089156e+00
13105.600  1.517606e+00
13105.620  1.565262e+00
13105.640  1.173348e+00
13105.660  7.447989e-01
13105.680  4.677235e-01
13105.700  3.091601e-01
13105.720  2.163436e-01
13105.740  1.588829e-01
13105.760  1.213002e-01
13105.780  9.553877e-02
13105.800  7.718464e-02
13105.820  6.369084e-02
13105.840  5.351947e-02
13105.860  4.572441e-02
13105.880  3.965401e-02
13105.900  3.473348e-02
13105.920  3.053346e-02
13105.940  2.698148e-02
13105.960  2.404820e-02
13105.980  2.161405e-02
13106.000  1.956583e-02
13106.020  1.782182e-02
13106.040  1.632303e-02
13106.060  1.502521e-02
13106.080  1.389423e-02
13106.100  1.290317e-02
13106.120  1.203049e-02
13106.140  1.125873e-02
13106.160  1.057364e-02
13106.180  9.963425e-03
13106.200  9.418321e-03
13106.220  8.930143e-03
13106.240  8.492010e-03
13106.260  8.098102e-03
13106.280  7.743475e-03
13106.300  7.423911e-03
13106.320  7.135797e-03
13106.340  6.876032e-03
13106.360  6.641945e-03
13106.380  6.431232e-03
13106.400  6.241905e-03
13106.420  6.072245e-03
13106.440  5.920769e-03
13106.460  5.786198e-03
13106.480  5.667435e-03
13106.500  5.565977e-03
13106.520  5.476169e-03
13106.540  5.399778e-03
13106.560  5.336259e-03
13106.580  5.285177e-03
13106.600  5.246204e-03
13106.620  5.219105e-03
13106.640  5.203744e-03
13106.660  5.200077e-03
13106.680  5.208154e-03
13106.700  5.228117e-03
13106.720  5.260211e-03
13106.740  5.304781e-03
13106.760  5.362282e-03
13106.780  5.433292e-03
13106.800  5.518517e-03
13106.820  5.618812e-03
13106.840  5.735200e-03
13106.860  5.868893e-03
13106.880  6.021328e-03
13106.900  6.194203e-03
13106.920  6.389534e-03
13106.940  6.609725e-03
13106.960  6.857666e-03
13106.980  7.136895e-03
13107.000  7.451827e-03
13107.020  7.808171e-03
13107.040  8.213692e-03
13107.060  8.679715e-03
13107.080  9.224064e-03
13107.100  9.874674e-03
13107.120  1.065841e-02
13107.140  1.152966e-02
13107.160  1.234412e-02
13107.180  1.311420e-02
13107.200  1.402407e-02
13107.220  1.517035e-02
13107.240  1.658094e-02
13107.260  1.829685e-02
13107.280  2.039877e-02
13107.300  2.302908e-02
13107.320  2.641023e-02
13107.340  3.067563e-02
13107.360  3.534828e-02
13107.380  4.002808e-02
13107.400  4.576866e-02
13107.420  5.378319e-02
13107.440  6.491861e-02
13107.460  8.042854e-02
13107.480  1.025351e-01
13107.500  1.352235e-01
13107.520  1.859086e-01
13107.540  2.690025e-01
13107.560  4.125834e-01
13107.580  6.610700e-01
13107.600  1.017013e+00
13107.620  1.266506e+00
13107.640  1.129280e+00
13107.660  7.708644e-01
13107.680  4.805703e-01
13107.700  3.075803e-01
13107.720  2.084812e-01
13107.740  1.491280e-01
13107.760  1.114753e-01
13107.780  8.631588e-02
13107.800  6.875517e-02
13107.820  5.604731e-02
13107.840  4.657065e-02
13107.860  3.932074e-02
13107.880  3.365868e-02
13107.900  2.915256e-02
13107.920  2.550901e-02
13107.940  2.252180e-02
13107.960  2.004267e-02
13107.980  1.796285e-02
13108.000  1.620115e-02
13108.020  1.469599e-02
13108.040  1.339999e-02
13108.060  1.227625e-02
13108.080  1.129565e-02
13108.100  1.043504e-02
13108.120  9.675766e-03
13108.140  9.002739e-03
13108.160  8.403623e-03
13108.180  7.868290e-03
13108.200  7.388385e-03
13108.220  6.957001e-03
13108.240  6.568441e-03
13108.260  6.218043e-03
13108.280  5.902072e-03
13108.300  5.617677e-03
13108.320  5.362945e-03
13108.340  5.137041e-03
13108.360  4.940636e-03
13108.380  4.776700e-03
13108.400  4.652179e-03
13108.420  4.581525e-03
13108.440  4.594272e-03
13108.460  4.753417e-03
13108.480  5.153980e-03
13108.500  5.846508e-03
13108.520  6.414731e-03
13108.540  6.104861e-03
13108.560  5.152172e-03
13108.580  4.310492e-03
13108.600  3.765116e-03
13108.620  3.417167e-03
13108.640  3.178130e-03
13108.660  3.000300e-03
13108.680  2.859253e-03
13108.700  2.741957e-03
13108.720  2.641041e-03
13108.740  2.552075e-03
13108.760  2.472288e-03
13108.780  2.399817e-03
13108.800  2.333387e-03
13108.820  2.272091e-03
13108.840  2.215263e-03
13108.860  2.162412e-03
13108.880  2.113169e-03
13108.900  2.067272e-03
13108.920  2.024549e-03
13108.940  1.984925e-03
13108.960  1.948441e-03
13108.980  1.915293e-03
13109.000  1.885933e-03
13109.020  1.861240e-03
13109.040  1.842892e-03
13109.060  1.834145e-03
13109.080  1.841477e-03
13109.100  1.877405e-03
13109.120  1.959360e-03
13109.140  2.075426e-03
13109.160  2.119424e-03
13109.180  2.010001e-03
13109.200  1.847568e-03
13109.220  1.721386e-03
13109.240  1.642760e-03
13109.260  1.590057e-03
13109.280  1.551637e-03
13109.300  1.521483e-03
13109.320  1.496487e-03
13109.340  1.474963e-03
13109.360  1.455944e-03
13109.380  1.438839e-03
13109.400  1.423275e-03
13109.420  1.409000e-03
13109.440  1.395841e-03
13109.460  1.383674e-03
13109.480  1.372405e-03
13109.500  1.361966e-03
13109.520  1.352300e-03
13109.540  1.343367e-03
13109.560  1.335130e-03
13109.580  1.327562e-03
13109.600  1.320640e-03
13109.620  1.314344e-03
13109.640  1.308652e-03
13109.660  1.303564e-03
13109.680  1.299064e-03
13109.700  1.295144e-03
13109.720  1.291799e-03
13109.740  1.289025e-03
13109.760  1.286821e-03
13109.780  1.285187e-03
13109.800  1.284127e-03
13109.820  1.283646e-03
13109.840  1.283753e-03
13109.860  1.284457e-03
13109.880  1.285774e-03
13109.900  1.287723e-03
13109.920  1.290326e-03
13109.940  1.293621e-03
13109.960  1.297633e-03
13109.980  1.302415e-03
13110.000  1.308031e-03
13110.020  1.314562e-03
13110.040  1.322116e-03
13110.060  1.330839e-03
13110.080  1.340938e-03
13110.100  1.352710e-03
13110.120  1.366595e-03
13110.140  1.383283e-03
13110.160  1.403907e-03
13110.180  1.430435e-03
13110.200  1.466509e-03
13110.220  1.519304e-03
13110.240  1.603209e-03
13110.260  1.741826e-03
13110.280  1.935447e-03
13110.300  2.065944e-03
13110.320  2.004231e-03
13110.340  1.863934e-03
13110.360  1.778740e-03
13110.380  1.759664e-03
13110.400  1.789262e-03
13110.420  1.863450e-03
13110.440  1.995701e-03
13110.460  2.223510e-03
13110.480  2.619743e-03
13110.500  3.252045e-03
13110.520  3.911119e-03
13110.540  3.976138e-03
13110.560  3.391963e-03
13110.580  2.779249e-03
13110.600  2.399788e-03
13110.620  2.196201e-03
13110.640  2.090183e-03
13110.660  2.037510e-03
13110.680  2.015737e-03
13110.700  2.013197e-03
13110.720  2.023523e-03
13110.740  2.043075e-03
13110.760  2.069685e-03
13110.780  2.102047e-03
13110.800  2.139345e-03
13110.820  2.181090e-03
13110.840  2.227001e-03
13110.860  2.276943e-03
13110.880  2.330884e-03
13110.900  2.388872e-03
13110.920  2.451018e-03
13110.940  2.517487e-03
13110.960  2.588494e-03
13110.980  2.664299e-03
13111.000  2.745206e-03
13111.020  2.831569e-03
13111.040  2.923787e-03
13111.060  3.022314e-03
13111.080  3.127663e-03
13111.100  3.240408e-03
13111.120  3.361198e-03
13111.140  3.487187e-03
13111.160  3.626359e-03
13111.180  3.776061e-03
13111.200  3.937350e-03
13111.220  4.114867e-03
13111.240  4.303115e-03
13111.260  4.507102e-03
13111.280  4.728649e-03
13111.300  4.969870e-03
13111.320  5.233242e-03
13111.340  5.521697e-03
13111.360  5.838746e-03
13111.380  6.188663e-03
13111.400  6.576786e-03
13111.420  7.009909e-03
13111.440  7.497126e-03
13111.460  8.051220e-03
13111.480  8.691513e-03
13111.500  9.449891e-03
13111.520  1.038367e-02
13111.540  1.159639e-02
13111.560  1.320924e-02
13111.580  1.503567e-02
13111.600  1.630749e-02
13111.620  1.692209e-02
13111.640  1.772102e-02
13111.660  1.908826e-02
13111.680  2.100618e-02
13111.700  2.346222e-02
13111.720  2.652052e-02
13111.740  3.031582e-02
13111.760  3.505959e-02
13111.780  4.106590e-02
13111.800  4.880609e-02
13111.820  5.898455e-02
13111.840  7.271745e-02
13111.860  9.181832e-02
13111.880  1.193737e-01
13111.900  1.608967e-01
13111.920  2.266956e-01
13111.940  3.363767e-01
13111.960  5.232945e-01
13111.980  8.122432e-01
13112.000  1.103191e+00
13112.020  1.130263e+00
13112.040  8.616432e-01
13112.060  5.606021e-01
13112.080  3.587131e-01
13112.100  2.398308e-01
13112.120  1.689725e-01
13112.140  1.246130e-01
13112.160  9.538907e-02
13112.180  7.525678e-02
13112.200  6.085767e-02
13112.220  5.023290e-02
13112.240  4.218564e-02
13112.260  3.596750e-02
13112.280  3.108558e-02
13112.300  2.721756e-02
13112.320  2.411239e-02
13112.340  2.149153e-02
13112.360  1.916857e-02
13112.380  1.716298e-02
13112.400  1.548135e-02
13112.420  1.406516e-02
13112.440  1.285654e-02
13112.460  1.181362e-02
13112.480  1.090606e-02
13112.500  1.011100e-02
13112.520  9.410576e-03
13112.540  8.790541e-03
13112.560  8.239346e-03
13112.580  7.747514e-03
13112.600  7.307197e-03
13112.620  6.911840e-03
13112.640  6.555936e-03
13112.660  6.234827e-03
13112.680  5.944554e-03
13112.700  5.681737e-03
13112.720  5.443477e-03
13112.740  5.227279e-03
13112.760  5.030987e-03
13112.780  4.852737e-03
13112.800  4.690910e-03
13112.820  4.544101e-03
13112.840  4.411086e-03
13112.860  4.290802e-03
13112.880  4.182325e-03
13112.900  4.084854e-03
13112.920  3.997696e-03
13112.940  3.920257e-03
13112.960  3.852032e-03
13112.980  3.792597e-03
13113.000  3.741603e-03
13113.020  3.698773e-03
13113.040  3.663901e-03
13113.060  3.636849e-03
13113.080  3.617551e-03
13113.100  3.606017e-03
13113.120  3.602345e-03
13113.140  3.606735e-03
13113.160  3.619521e-03
13113.180  3.641215e-03
13113.200  3.672602e-03
13113.220  3.719197e-03
13113.240  3.774384e-03
13113.260  3.845826e-03
13113.280  3.939601e-03
13113.300  4.066607e-03
13113.320  4.241804e-03
13113.340  4.460019e-03
13113.360  4.642880e-03
13113.380  4.710039e-03
13113.400  4.728138e-03
13113.420  4.789774e-03
13113.440  4.912240e-03
13113.460  5.086067e-03
13113.480  5.306211e-03
13113.500  5.575824e-03
13113.520  5.907058e-03
13113.540  6.326009e-03
13113.560  6.884922e-03
13113.580  7.672330e-03
13113.600  8.715907e-03
13113.620  9.633185e-03
13113.640  9.907069e-03
13113.660  9.898108e-03
13113.680  1.014058e-02
13113.700  1.070518e-02
13113.720  1.152997e-02
13113.740  1.258841e-02
13113.760  1.389251e-02
13113.780  1.548193e-02
13113.800  1.742155e-02
13113.820  1.980596e-02
13113.840  2.277012e-02
13113.860  2.650811e-02
13113.880  3.130694e-02
13113.900  3.759212e-02
13113.920  4.603305e-02
13113.940  5.770922e-02
13113.960  7.444342e-02
13113.980  9.948078e-02
13114.000  1.389108e-01
13114.020  2.045588e-01
13114.040  3.183209e-01
13114.060  5.061717e-01
13114.080  7.313716e-01
13114.100  8.103870e-01
13114.120  6.490486e-01
13114.140  4.243300e-01
13114.160  2.667957e-01
13114.180  1.749127e-01
13114.200  1.213063e-01
13114.220  8.840502e-02
13114.240  6.707328e-02
13114.260  5.256148e-02
13114.280  4.228430e-02
13114.300  3.475920e-02
13114.320  2.909199e-02
13114.340  2.472746e-02
13114.360  2.129792e-02
13114.380  1.855892e-02
13114.400  1.634243e-02
13114.420  1.453125e-02
13114.440  1.304389e-02
13114.460  1.182637e-02
13114.480  1.085014e-02
13114.500  1.011615e-02
13114.520  9.659725e-03
13114.540  9.501166e-03
13114.560  9.412788e-03
13114.580  8.873064e-03
13114.600  7.862161e-03
13114.620  6.877577e-03
13114.640  6.129791e-03
13114.660  5.571888e-03
13114.680  5.134186e-03
13114.700  4.773795e-03
13114.720  4.466750e-03
13114.740  4.199095e-03
13114.760  3.962108e-03
13114.780  3.749942e-03
13114.800  3.558462e-03
13114.820  3.384555e-03
13114.840  3.225818e-03
13114.860  3.080332e-03
13114.880  2.946523e-03
13114.900  2.823085e-03
13114.920  2.708913e-03
13114.940  2.603063e-03
13114.960  2.504721e-03
13114.980  2.413181e-03
13115.000  2.327826e-03
13115.020  2.248115e-03
13115.040  2.173570e-03
13115.060  2.103772e-03
13115.080  2.038346e-03
13115.100  1.976968e-03
13115.120  1.919349e-03
13115.140  1.865239e-03
13115.160  1.814425e-03
13115.180  1.766731e-03
13115.200  1.722026e-03
13115.220  1.680228e-03
13115.240  1.641323e-03
13115.260  1.605412e-03
13115.280  1.572747e-03
13115.300  1.543863e-03
13115.320  1.519821e-03
13115.340  1.502707e-03
13115.360  1.496676e-03
13115.380  1.509654e-03
13115.400  1.552228e-03
13115.420  1.615580e-03
13115.440  1.632793e-03
13115.460  1.554600e-03
13115.480  1.443460e-03
13115.500  1.357462e-03
13115.520  1.299284e-03
13115.540  1.258044e-03
13115.560  1.226367e-03
13115.580  1.204235e-03
13115.600  1.181916e-03
13115.620  1.162151e-03
13115.640  1.144294e-03
13115.660  1.127946e-03
13115.680  1.112853e-03
13115.700  1.098838e-03
13115.720  1.085778e-03
13115.740  1.073583e-03
13115.760  1.062185e-03
13115.780  1.051532e-03
13115.800  1.041582e-03
13115.820  1.032303e-03
13115.840  1.023669e-03
13115.860  1.015659e-03
13115.880  1.008258e-03
13115.900  1.001454e-03
13115.920  9.952400e-04
13115.940  9.896131e-04
13115.960  9.845751e-04
13115.980  9.801332e-04
13116.000  9.763007e-04
13116.020  9.731011e-04
13116.040  9.705629e-04
13116.060  9.687345e-04
13116.080  9.676842e-04
13116.100  9.675057e-04
13116.120  9.683436e-04
13116.140  9.704104e-04
13116.160  9.740390e-04
13116.180  9.797665e-04
13116.200  9.885026e-04
13116.220  1.001873e-03
13116.240  1.022944e-03
13116.260  1.057723e-03
13116.280  1.117227e-03
13116.300  1.212775e-03
13116.320  1.318148e-03
13116.340  1.341341e-03
13116.360  1.262002e-03
13116.380  1.172296e-03
13116.400  1.118942e-03
13116.420  1.095673e-03
13116.440  1.090997e-03
13116.460  1.098949e-03
13116.480  1.117778e-03
13116.500  1.148728e-03
13116.520  1.196268e-03
13116.540  1.269996e-03
13116.560  1.389233e-03
13116.580  1.591176e-03
13116.600  1.928664e-03
13116.620  2.374970e-03
13116.640  2.622197e-03
13116.660  2.394770e-03
13116.680  1.972558e-03
13116.700  1.660602e-03
13116.720  1.479145e-03
13116.740  1.384311e-03
13116.760  1.334423e-03
13116.780  1.310004e-03
13116.800  1.301022e-03
13116.820  1.302100e-03
13116.840  1.310222e-03
13116.860  1.323623e-03
13116.880  1.341254e-03
13116.900  1.362463e-03
13116.920  1.386883e-03
13116.940  1.414291e-03
13116.960  1.444589e-03
13116.980  1.477762e-03
13117.000  1.513857e-03
13117.020  1.552978e-03
13117.040  1.595274e-03
13117.060  1.640937e-03
13117.080  1.690208e-03
13117.100  1.743372e-03
13117.120  1.800772e-03
13117.140  1.862811e-03
13117.160  1.929971e-03
13117.180  2.002828e-03
13117.200  2.082085e-03
13117.220  2.168607e-03
13117.240  2.263498e-03
13117.260  2.368208e-03
13117.280  2.484694e-03
13117.300  2.615779e-03
13117.320  2.765744e-03
13117.340  2.941537e-03
13117.360  3.155302e-03
13117.380  3.429694e-03
13117.400  3.807613e-03
13117.420  4.354319e-03
13117.440  5.063143e-03
13117.460  5.604605e-03
13117.480  5.613920e-03
13117.500  5.385009e-03
13117.520  5.306751e-03
13117.540  5.427187e-03
13117.560  5.689563e-03
13117.580  6.056357e-03
13117.600  6.518132e-03
13117.620  7.065407e-03
13117.640  7.711142e-03
13117.660  8.470399e-03
13117.680  9.364920e-03
13117.700  1.042432e-02
13117.720  1.168834e-02
13117.740  1.321052e-02
13117.760  1.506383e-02
13117.780  1.734935e-02
13117.800  2.021000e-02
13117.820  2.385268e-02
13117.840  2.858818e-02
13117.860  3.488584e-02
13117.880  4.350202e-02
13117.900  5.569097e-02
13117.920  7.363741e-02
13117.940  1.013366e-01
13117.960  1.463725e-01
13117.980  2.228038e-01
13118.000  3.500583e-01
13118.020  5.196925e-01
13118.040  6.230056e-01
13118.060  5.467642e-01
13118.080  3.775781e-01
13118.100  2.405337e-01
13118.120  1.567292e-01
13118.140  1.075249e-01
13118.160  7.752441e-02
13118.180  5.825463e-02
13118.200  4.526442e-02
13118.220  3.613881e-02
13118.240  2.950294e-02
13118.260  2.453410e-02
13118.280  2.072528e-02
13118.300  1.774265e-02
13118.320  1.536518e-02
13118.340  1.344093e-02
13118.360  1.186297e-02
13118.380  1.055465e-02
13118.400  9.460474e-03
13118.420  8.540715e-03
13118.440  7.768480e-03
13118.460  7.126288e-03
13118.480  6.588743e-03
13118.500  6.093892e-03
13118.520  5.596447e-03
13118.540  5.131026e-03
13118.560  4.728464e-03
13118.580  4.383003e-03
13118.600  4.081641e-03
13118.620  3.814961e-03
13118.640  3.576655e-03
13118.660  3.358256e-03
13118.680  3.164332e-03
13118.700  2.988199e-03
13118.720  2.827654e-03
13118.740  2.680858e-03
13118.760  2.546257e-03
13118.780  2.422523e-03
13118.800  2.308514e-03
13118.820  2.203242e-03
13118.840  2.105841e-03
13118.860  2.015574e-03
13118.880  1.931781e-03
13118.900  1.853890e-03
13118.920  1.781401e-03
13118.940  1.713885e-03
13118.960  1.650974e-03
13118.980  1.592361e-03
13119.000  1.537812e-03
13119.020  1.487172e-03
13119.040  1.440392e-03
13119.060  1.397587e-03
13119.080  1.359139e-03
13119.100  1.325911e-03
13119.120  1.299694e-03
13119.140  1.284074e-03
13119.160  1.285489e-03
13119.180  1.310107e-03
13119.200  1.342340e-03
13119.220  1.327979e-03
13119.240  1.249468e-03
13119.260  1.159431e-03
13119.280  1.090644e-03
13119.300  1.041571e-03
13119.320  1.004761e-03
13119.340  9.754775e-04
13119.360  9.512889e-04
13119.380  9.310415e-04
13119.400  9.143054e-04
13119.420  9.011605e-04
13119.440  8.921617e-04
13119.460  8.885223e-04
13119.480  8.925092e-04
13119.500  9.083496e-04
13119.520  9.441732e-04
13119.540  1.016060e-03
13119.560  1.157875e-03
13119.580  1.395755e-03
13119.600  1.670855e-03
13119.620  1.725271e-03
13119.640  1.475649e-03
13119.660  1.179216e-03
13119.680  9.797050e-04
13119.700  8.611364e-04
13119.720  7.880807e-04
13119.740  7.396423e-04
13119.760  7.051758e-04
13119.780  6.791721e-04
13119.800  6.586465e-04
13119.820  6.419213e-04
13119.840  6.280600e-04
13119.860  6.166252e-04
13119.880  6.074859e-04
13119.900  6.001631e-04
13119.920  5.927542e-04
13119.940  5.839758e-04
13119.960  5.754918e-04
13119.980  5.687632e-04
13120.000  5.639059e-04
13120.020  5.608323e-04
13120.040  5.596791e-04
13120.060  5.608547e-04
13120.080  5.650863e-04
13120.100  5.736079e-04
13120.120  5.884878e-04
13120.140  6.133352e-04
13120.160  6.547115e-04
13120.180  7.250347e-04
13120.200  8.477339e-04
13120.220  1.059110e-03
13120.240  1.365043e-03
13120.260  1.601564e-03
13120.280  1.515367e-03
13120.300  1.202534e-03
13120.320  9.236595e-04
13120.340  7.476689e-04
13120.360  6.429320e-04
13120.380  5.780936e-04
13120.400  5.354503e-04
13120.420  5.057379e-04
13120.440  4.839488e-04
13120.460  4.672599e-04
13120.480  4.539944e-04
13120.500  4.431322e-04
13120.520  4.339832e-04
13120.540  4.261114e-04
13120.560  4.192113e-04
13120.580  4.130676e-04
13120.600  4.075252e-04
13120.620  4.024679e-04
13120.640  3.978131e-04
13120.660  3.934936e-04
13120.680  3.894585e-04
13120.700  3.856679e-04
13120.720  3.820898e-04
13120.740  3.786986e-04
13120.760  3.754734e-04
13120.780  3.723967e-04
13120.800  3.694542e-04
13120.820  3.666338e-04
13120.840  3.639253e-04
13120.860  3.613198e-04
13120.880  3.588099e-04
13120.900  3.563890e-04
13120.920  3.540513e-04
13120.940  3.517918e-04
13120.960  3.496061e-04
13120.980  3.474902e-04
13121.000  3.454406e-04
13121.020  3.434540e-04
13121.040  3.415275e-04
13121.060  3.396587e-04
13121.080  3.378450e-04
13121.100  3.360843e-04
13121.120  3.343745e-04
13121.140  3.327139e-04
13121.160  3.311008e-04
13121.180  3.295334e-04
13121.200  3.280104e-04
13121.220  3.265304e-04
13121.240  3.250920e-04
13121.260  3.236942e-04
13121.280  3.223357e-04
13121.300  3.210155e-04
13121.320  3.197326e-04
13121.340  3.184860e-04
13121.360  3.172748e-04
13121.380  3.160983e-04
13121.400  3.149555e-04
13121.420  3.138458e-04
13121.440  3.127684e-04
13121.460  3.117225e-04
13121.480  3.107077e-04
13121.500  3.097232e-04
13121.520  3.087685e-04
13121.540  3.078429e-04
13121.560  3.069460e-04
13121.580  3.060771e-04
13121.600  3.096647e-04
13121.620  3.088577e-04
13121.640  3.080775e-04
13121.660  3.073236e-04
13121.680  3.065955e-04
13121.700  3.058929e-04
13121.720  3.052155e-04
13121.740  3.045642e-04
13121.760  3.039359e-04
13121.780  3.033316e-04
13121.800  3.027512e-04
13121.820  3.021942e-04
13121.840  3.016603e-04
13121.860  3.011494e-04
13121.880  3.006611e-04
13121.900  3.001952e-04
13121.920  2.997515e-04
13121.940  2.993297e-04
13121.960  2.989296e-04
13121.980  2.985528e-04
13122.000  2.981955e-04
13122.020  2.978594e-04
13122.040  2.975442e-04
13122.060  2.972568e-04
13122.080  2.969831e-04
13122.100  2.967299e-04
13122.120  2.964970e-04
13122.140  2.962844e-04
13122.160  2.960919e-04
13122.180  2.959178e-04
13122.200  2.957652e-04
13122.220  2.956325e-04
13122.240  2.955195e-04
13122.260  2.954262e-04
13122.280  2.953524e-04
13122.300  2.952982e-04
13122.320  2.952635e-04
13122.340  2.952567e-04
13122.360  2.952531e-04
13122.380  2.952766e-04
13122.400  2.953194e-04
13122.420  2.953816e-04
13122.440  2.954631e-04
13122.460  2.955640e-04
13122.480  2.956841e-04
13122.500  2.958237e-04
13122.520  2.959826e-04
13122.540  2.961609e-04
13122.560  2.963586e-04
13122.580  2.965759e-04
13122.600  2.968126e-04
13122.620  2.970690e-04
13122.640  2.973451e-04
13122.660  2.976410e-04
13122.680  2.979566e-04
13122.700  2.982922e-04
13122.720  2.986479e-04
13122.740  2.990236e-04
13122.760  2.994197e-04
13122.780  2.998361e-04
13122.800  3.002730e-04
13122.820  3.007306e-04
13122.840  3.012090e-04
13122.860  3.017084e-04
13122.880  3.022289e-04
13122.900  3.027707e-04
13122.920  3.033341e-04
13122.940  3.039191e-04
13122.960  3.045261e-04
13122.980  3.051551e-04
13123.000  3.058065e-04
13123.020  3.064805e-04
13123.040  3.071774e-04
13123.060  3.078973e-04
13123.080  3.086406e-04
13123.100  3.094075e-04
13123.120  3.101984e-04
13123.140  3.144251e-04
13123.160  3.152703e-04
13123.180  3.161403e-04
13123.200  3.170355e-04
13123.220  3.179564e-04
13123.240  3.189032e-04
13123.260  3.198764e-04
13123.280  3.208763e-04
13123.300  3.219034e-04
13123.320  3.229581e-04
13123.340  3.240408e-04
13123.360  3.251520e-04
13123.380  3.262922e-04
13123.400  3.274619e-04
13123.420  3.286616e-04
13123.440  3.298932e-04
13123.460  3.311545e-04
13123.480  3.324475e-04
13123.500  3.337727e-04
13123.520  3.351308e-04
13123.540  3.365225e-04
13123.560  3.379483e-04
13123.580  3.394090e-04
13123.600  3.409053e-04
13123.620  3.424380e-04
13123.640  3.440077e-04
13123.660  3.456154e-04
13123.680  3.472618e-04
13123.700  3.489545e-04
13123.720  3.506811e-04
13123.740  3.524490e-04
13123.760  3.542593e-04
13123.780  3.561146e-04
13123.800  3.580128e-04
13123.820  3.599481e-04
13123.840  3.619384e-04
13123.860  3.592011e-04
13123.880  3.612958e-04
13123.900  3.634407e-04
13123.920  3.656372e-04
13123.940  3.678866e-04
13123.960  3.701903e-04
13123.980  3.725498e-04
13124.000  3.749666e-04
13124.020  3.774423e-04
13124.040  3.799787e-04
13124.060  3.825773e-04
13124.080  3.852401e-04
13124.100  3.879767e-04
13124.120  3.907734e-04
13124.140  3.936387e-04
13124.160  3.965776e-04
13124.180  3.995909e-04
13124.200  4.026809e-04
13124.220  4.058500e-04
13124.240  4.091009e-04
13124.260  4.124360e-04
13124.280  4.158583e-04
13124.300  4.193706e-04
13124.320  4.229760e-04
13124.340  4.266777e-04
13124.360  4.304790e-04
13124.380  4.343834e-04
13124.400  4.383946e-04
13124.420  4.425164e-04
13124.440  4.467530e-04
13124.460  4.511084e-04
13124.480  4.555873e-04
13124.500  4.601943e-04
13124.520  4.649344e-04
13124.540  4.698127e-04
13124.560  4.748347e-04
13124.580  4.800063e-04
13124.600  4.853334e-04
13124.620  4.908225e-04
13124.640  4.964805e-04
13124.660  5.023143e-04
13124.680  5.083317e-04
13124.700  5.145406e-04
13124.720  5.209495e-04
13124.740  5.275674e-04
13124.760  5.344037e-04
13124.780  5.414687e-04
13124.800  5.487729e-04
13124.820  5.563278e-04
13124.840  5.641455e-04
13124.860  5.722389e-04
13124.880  5.806216e-04
13124.900  5.893083e-04
13124.920  5.983147e-04
13124.940  6.076573e-04
13124.960  6.173540e-04
13124.980  6.274238e-04
13125.000  6.378871e-04
13125.020  6.487658e-04
13125.040  6.600846e-04
13125.060  6.718663e-04
13125.080  6.841391e-04
13125.100  6.969324e-04
13125.120  7.102774e-04
13125.140  7.242083e-04
13125.160  7.387617e-04
13125.180  7.539773e-04
13125.200  7.737518e-04
13125.220  7.904307e-04
13125.240  8.079123e-04
13125.260  8.262517e-04
13125.280  8.455150e-04
13125.300  8.657558e-04
13125.320  8.870519e-04
13125.340  9.094817e-04
13125.360  9.331314e-04
13125.380  9.580957e-04
13125.400  9.844786e-04
13125.420  1.012395e-03
13125.440  1.041972e-03
13125.460  1.073351e-03
13125.480  1.106687e-03
13125.500  1.142155e-03
13125.520  1.179947e-03
13125.540  1.220280e-03
13125.560  1.263398e-03
13125.580  1.309572e-03
13125.600  1.359109e-03
13125.620  1.412360e-03
13125.640  1.469717e-03
13125.660  1.531628e-03
13125.680  1.598606e-03
13125.700  1.671236e-03
13125.720  1.750194e-03
13125.740  1.836258e-03
13125.760  1.930340e-03
13125.780  2.033470e-03
13125.800  2.146903e-03
13125.820  2.272082e-03
13125.840  2.406771e-03
13125.860  2.560924e-03
13125.880  2.733029e-03
13125.900  2.926036e-03
13125.920  3.143530e-03
13125.940  3.389897e-03
13125.960  3.670551e-03
13125.980  3.992241e-03
13126.000  4.363458e-03
13126.020  4.795003e-03
13126.040  5.300788e-03
13126.060  5.898963e-03
13126.080  6.613561e-03
13126.100  7.476929e-03
13126.120  8.533399e-03
13126.140  9.844999e-03
13126.160  1.150055e-02
13126.180  1.363180e-02
13126.200  1.643515e-02
13126.220  2.022212e-02
13126.240  2.550027e-02
13126.260  3.313667e-02
13126.280  4.468640e-02
13126.300  6.306628e-02
13126.320  9.381271e-02
13126.340  1.461145e-01
13126.360  2.253868e-01
13126.380  3.001102e-01
13126.400  2.991630e-01
13126.420  2.236800e-01
13126.440  1.448826e-01
13126.460  9.316836e-02
13126.480  6.281586e-02
13126.500  4.466188e-02
13126.520  3.320736e-02
13126.540  2.560277e-02
13126.560  2.034559e-02
13126.580  1.658129e-02
13126.600  1.380169e-02
13126.620  1.169418e-02
13126.640  1.006199e-02
13126.660  8.773392e-03
13126.680  7.739682e-03
13126.700  6.898975e-03
13126.720  6.207068e-03
13126.740  5.631738e-03
13126.760  5.149041e-03
13126.780  4.740921e-03
13126.800  4.393548e-03
13126.820  4.096193e-03
13126.840  3.840435e-03
13126.860  3.619598e-03
13126.880  3.428335e-03
13126.900  3.262330e-03
13126.920  3.118075e-03
13126.940  2.992695e-03
13126.960  2.883830e-03
13126.980  2.789525e-03
13127.000  2.708165e-03
13127.020  2.638410e-03
13127.040  2.579153e-03
13127.060  2.529485e-03
13127.080  2.488671e-03
13127.100  2.456135e-03
13127.120  2.431453e-03
13127.140  2.414348e-03
13127.160  2.404757e-03
13127.180  2.402828e-03
13127.200  2.409083e-03
13127.220  2.424654e-03
13127.240  2.451763e-03
13127.260  2.494441e-03
13127.280  2.557790e-03
13127.300  2.639226e-03
13127.320  2.718632e-03
13127.340  2.793454e-03
13127.360  2.908706e-03
13127.380  3.111193e-03
13127.400  3.377350e-03
13127.420  3.528153e-03
13127.440  3.446403e-03
13127.460  3.301849e-03
13127.480  3.232705e-03
13127.500  3.239263e-03
13127.520  3.294396e-03
13127.540  3.381313e-03
13127.560  3.492005e-03
13127.580  3.623063e-03
13127.600  3.773446e-03
13127.620  3.943455e-03
13127.640  4.134265e-03
13127.660  4.347741e-03
13127.680  4.586353e-03
13127.700  4.853213e-03
13127.720  5.152130e-03
13127.740  5.487740e-03
13127.760  5.865667e-03
13127.780  6.292755e-03
13127.800  6.777369e-03
13127.820  7.329804e-03
13127.840  7.962819e-03
13127.860  8.692378e-03
13127.880  9.538643e-03
13127.900  1.052736e-02
13127.920  1.169183e-02
13127.940  1.307568e-02
13127.960  1.473696e-02
13127.980  1.675422e-02
13128.000  1.923584e-02
13128.020  2.233459e-02
13128.040  2.627125e-02
13128.060  3.137703e-02
13128.080  3.815208e-02
13128.100  4.739945e-02
13128.120  6.042834e-02
13128.140  7.943602e-02
13128.160  1.084064e-01
13128.180  1.552340e-01
13128.200  2.353095e-01
13128.220  3.733816e-01
13128.240  5.762765e-01
13128.260  7.374787e-01
13128.280  6.852277e-01
13128.300  4.823286e-01
13128.320  3.039634e-01
13128.340  1.944497e-01
13128.360  1.313068e-01
13128.380  9.355099e-02
13128.400  6.968768e-02
13128.420  5.380417e-02
13128.440  4.276068e-02
13128.460  3.479250e-02
13128.480  2.886736e-02
13128.500  2.434603e-02
13128.520  2.082319e-02
13128.540  1.802552e-02
13128.560  1.576787e-02
13128.580  1.392037e-02
13128.600  1.238982e-02
13128.620  1.110799e-02
13128.640  1.002403e-02
13128.660  9.099417e-03
13128.680  8.304553e-03
13128.700  7.616397e-03
13128.720  7.016804e-03
13128.740  6.491326e-03
13128.760  6.028349e-03
13128.780  5.618450e-03
13128.800  5.253925e-03
13128.820  4.928428e-03
13128.840  4.636679e-03
13128.860  4.374286e-03
13128.880  4.137555e-03
13128.900  3.923373e-03
13128.920  3.729101e-03
13128.940  3.552508e-03
13128.960  3.391697e-03
13128.980  3.245072e-03
13129.000  3.111310e-03
13129.020  2.989351e-03
13129.040  2.878429e-03
13129.060  2.778146e-03
13129.080  2.688662e-03
13129.100  2.611098e-03
13129.120  2.548412e-03
13129.140  2.506922e-03
13129.160  2.495820e-03
13129.180  2.511762e-03
13129.200  2.493995e-03
13129.220  2.393307e-03
13129.240  2.259765e-03
13129.260  2.149634e-03
13129.280  2.067787e-03
13129.300  2.004267e-03
13129.320  1.951935e-03
13129.340  1.906954e-03
13129.360  1.867263e-03
13129.380  1.831691e-03
13129.400  1.799519e-03
13129.420  1.770279e-03
13129.440  1.743638e-03
13129.460  1.719361e-03
13129.480  1.697270e-03
13129.500  1.677227e-03
13129.520  1.659128e-03
13129.540  1.642897e-03
13129.560  1.628482e-03
13129.580  1.615859e-03
13129.600  1.605032e-03
13129.620  1.596049e-03
13129.640  1.589011e-03
13129.660  1.584103e-03
13129.680  1.581653e-03
13129.700  1.582235e-03
13129.720  1.586888e-03
13129.740  1.597596e-03
13129.760  1.618327e-03
13129.780  1.656850e-03
13129.800  1.723510e-03
13129.820  1.806609e-03
13129.840  1.839342e-03
13129.860  1.794968e-03
13129.880  1.743623e-03
13129.900  1.726802e-03
13129.920  1.743993e-03
13129.940  1.794169e-03
13129.960  1.888522e-03
13129.980  2.056078e-03
13130.000  2.342432e-03
13130.020  2.735173e-03
13130.040  2.980921e-03
13130.060  2.809540e-03
13130.080  2.438495e-03
13130.100  2.155249e-03
13130.120  1.994870e-03
13130.140  1.910987e-03
13130.160  1.869300e-03
13130.180  1.851693e-03
13130.200  1.848863e-03
13130.220  1.855870e-03
13130.240  1.869960e-03
13130.260  1.889575e-03
13130.280  1.913839e-03
13130.300  1.942277e-03
13130.320  1.974683e-03
13130.340  2.010942e-03
13130.360  2.050996e-03
13130.380  2.095183e-03
13130.400  2.144300e-03
13130.420  2.199310e-03
13130.440  2.261626e-03
13130.460  2.333583e-03
13130.480  2.419266e-03
13130.500  2.526260e-03
13130.520  2.669520e-03
13130.540  2.879117e-03
13130.560  3.204825e-03
13130.580  3.648815e-03
13130.600  3.961063e-03
13130.620  3.856609e-03
13130.640  3.582985e-03
13130.660  3.417766e-03
13130.680  3.377204e-03
13130.700  3.411903e-03
13130.720  3.490706e-03
13130.740  3.598719e-03
13130.760  3.729166e-03
13130.780  3.879188e-03
13130.800  4.047959e-03
13130.820  4.235840e-03
13130.840  4.443998e-03
13130.860  4.674216e-03
13130.880  4.928855e-03
13130.900  5.210860e-03
13130.920  5.523815e-03
13130.940  5.872052e-03
13130.960  6.260785e-03
13130.980  6.696312e-03
13131.000  7.186263e-03
13131.020  7.739941e-03
13131.040  8.368764e-03
13131.060  9.086864e-03
13131.080  9.911883e-03
13131.100  1.086606e-02
13131.120  1.197777e-02
13131.140  1.328360e-02
13131.160  1.483141e-02
13131.180  1.668475e-02
13131.200  1.892940e-02
13131.220  2.168335e-02
13131.240  2.511237e-02
13131.260  2.945500e-02
13131.280  3.506741e-02
13131.300  4.248661e-02
13131.320  5.256471e-02
13131.340  6.671787e-02
13131.360  8.740399e-02
13131.380  1.191422e-01
13131.400  1.707281e-01
13131.420  2.598463e-01
13131.440  4.186822e-01
13131.460  6.717396e-01
13131.480  9.106923e-01
13131.500  8.838742e-01
13131.520  6.254389e-01
13131.540  3.862511e-01
13131.560  2.415797e-01
13131.580  1.604375e-01
13131.600  1.130350e-01
13131.620  8.359075e-02
13131.640  6.424968e-02
13131.660  5.093857e-02
13131.680  4.142752e-02
13131.700  3.442923e-02
13131.720  2.916851e-02
13131.740  2.514767e-02
13131.760  2.194720e-02
13131.780  1.924806e-02
13131.800  1.697510e-02
13131.820  1.511242e-02
13131.840  1.358409e-02
13131.860  1.231244e-02
13131.880  1.124074e-02
13131.900  1.032853e-02
13131.920  9.545892e-03
13131.940  8.870065e-03
13131.960  8.283315e-03
13131.980  7.771611e-03
13132.000  7.323717e-03
13132.020  6.930550e-03
13132.040  6.584728e-03
13132.060  6.280233e-03
13132.080  6.012178e-03
13132.100  5.776664e-03
13132.120  5.570728e-03
13132.140  5.392427e-03
13132.160  5.241191e-03
13132.180  5.118725e-03
13132.200  5.030913e-03
13132.220  4.989605e-03
13132.240  4.999565e-03
13132.260  5.004395e-03
13132.280  4.910330e-03
13132.300  4.756232e-03
13132.320  4.634634e-03
13132.340  4.563451e-03
13132.360  4.530332e-03
13132.380  4.527091e-03
13132.400  4.552714e-03
13132.420  4.612792e-03
13132.440  4.722210e-03
13132.460  4.913416e-03
13132.480  5.250756e-03
13132.500  5.810758e-03
13132.520  6.451038e-03
13132.540  6.602357e-03
13132.560  6.153393e-03
13132.580  5.681568e-03
13132.600  5.436156e-03
13132.620  5.359323e-03
13132.640  5.375705e-03
13132.660  5.454402e-03
13132.680  5.574098e-03
13132.700  5.726674e-03
13132.720  5.908835e-03
13132.740  6.119960e-03
13132.760  6.361169e-03
13132.780  6.635000e-03
13132.800  6.945454e-03
13132.820  7.298401e-03
13132.840  7.702569e-03
13132.860  8.171650e-03
13132.880  8.728871e-03
13132.900  9.416335e-03
13132.920  1.030527e-02
13132.940  1.144421e-02
13132.960  1.260475e-02
13132.980  1.333232e-02
13133.000  1.378842e-02
13133.020  1.446049e-02
13133.040  1.548094e-02
13133.060  1.682229e-02
13133.080  1.847899e-02
13133.100  2.048515e-02
13133.120  2.290816e-02
13133.140  2.584953e-02
13133.160  2.945346e-02
13133.180  3.392377e-02
13133.200  3.955245e-02
13133.220  4.677090e-02
13133.240  5.621856e-02
13133.260  6.890292e-02
13133.280  8.645451e-02
13133.300  1.116441e-01
13133.320  1.494382e-01
13133.340  2.092696e-01
13133.360  3.099555e-01
13133.380  4.884258e-01
13133.400  7.964523e-01
13133.420  1.193205e+00
13133.440  1.358535e+00
13133.460  1.087492e+00
13133.480  6.960559e-01
13133.500  4.279200e-01
13133.520  2.761380e-01
13133.540  1.895500e-01
13133.560  1.371963e-01
13133.580  1.035917e-01
13133.600  8.088908e-02
13133.620  6.489234e-02
13133.640  5.322370e-02
13133.660  4.446016e-02
13133.680  3.772440e-02
13133.700  3.243506e-02
13133.720  2.820832e-02
13133.740  2.477879e-02
13133.760  2.196034e-02
13133.780  1.961419e-02
13133.800  1.764190e-02
13133.820  1.596848e-02
13133.840  1.453682e-02
13133.860  1.330286e-02
13133.880  1.223211e-02
13133.900  1.129734e-02
13133.920  1.047678e-02
13133.940  9.752908e-03
13133.960  9.111480e-03
13133.980  8.540863e-03
13134.000  8.031510e-03
13134.020  7.575590e-03
13134.040  7.166712e-03
13134.060  6.799796e-03
13134.080  6.471064e-03
13134.100  6.178289e-03
13134.120  5.921535e-03
13134.140  5.704919e-03
13134.160  5.539906e-03
13134.180  5.444404e-03
13134.200  5.402559e-03
13134.220  5.289917e-03
13134.240  5.021845e-03
13134.260  4.718677e-03
13134.280  4.475194e-03
13134.300  4.287992e-03
13134.320  4.136339e-03
13134.340  4.007469e-03
13134.360  3.894744e-03
13134.380  3.794614e-03
13134.400  3.705076e-03
13134.420  3.624995e-03
13134.440  3.553845e-03
13134.460  3.491677e-03
13134.480  3.439316e-03
13134.500  3.398946e-03
13134.520  3.375514e-03
13134.540  3.379789e-03
13134.560  3.431517e-03
13134.580  3.538176e-03
13134.600  3.609516e-03
13134.620  3.518263e-03
13134.640  3.348026e-03
13134.660  3.221671e-03
13134.680  3.149063e-03
13134.700  3.109678e-03
13134.720  3.091118e-03
13134.740  3.088478e-03
13134.760  3.101204e-03
13134.780  3.132077e-03
13134.800  3.188038e-03
13134.820  3.283260e-03
13134.840  3.446468e-03
13134.860  3.735618e-03
13134.880  4.246864e-03
13134.900  4.991540e-03
13134.920  5.501093e-03
13134.940  5.188984e-03
13134.960  4.471074e-03
13134.980  3.936745e-03
13135.000  3.646525e-03
13135.020  3.503168e-03
13135.040  3.440551e-03
13135.060  3.426215e-03
13135.080  3.445556e-03
13135.100  3.493632e-03
13135.120  3.572553e-03
13135.140  3.692773e-03
13135.160  3.879476e-03
13135.180  4.187561e-03
13135.200  4.715526e-03
13135.220  5.487159e-03
13135.240  6.025605e-03
13135.260  5.745319e-03
13135.280  5.116950e-03
13135.300  4.704481e-03
13135.320  4.528442e-03
13135.340  4.487021e-03
13135.360  4.519507e-03
13135.380  4.595782e-03
13135.400  4.702681e-03
13135.420  4.833632e-03
13135.440  4.985598e-03
13135.460  5.157454e-03
13135.480  5.349242e-03
13135.500  5.561759e-03
13135.520  5.796406e-03
13135.540  6.055098e-03
13135.560  6.340273e-03
13135.580  6.654880e-03
13135.600  7.002461e-03
13135.620  7.387238e-03
13135.640  7.814233e-03
13135.660  8.289426e-03
13135.680  8.819969e-03
13135.700  9.414445e-03
13135.720  1.008322e-02
13135.740  1.083892e-02
13135.760  1.169694e-02
13135.780  1.267637e-02
13135.800  1.380094e-02
13135.820  1.510146e-02
13135.840  1.661402e-02
13135.860  1.838845e-02
13135.880  2.048851e-02
13135.900  2.299857e-02
13135.920  2.603215e-02
13135.940  2.974478e-02
13135.960  3.435405e-02
13135.980  4.017159e-02
13136.000  4.766013e-02
13136.020  5.751041e-02
13136.040  7.082175e-02
13136.060  8.939544e-02
13136.080  1.163401e-01
13136.100  1.573363e-01
13136.120  2.234304e-01
13136.140  3.372366e-01
13136.160  5.436265e-01
13136.180  8.989607e-01
13136.200  1.314246e+00
13136.220  1.392737e+00
13136.240  1.031624e+00
13136.260  6.339482e-01
13136.280  3.871289e-01
13136.300  2.513824e-01
13136.320  1.740637e-01
13136.340  1.270380e-01
13136.360  9.664274e-02
13136.380  7.597882e-02
13136.400  6.134049e-02
13136.420  5.061609e-02
13136.440  4.253590e-02
13136.460  3.631339e-02
13136.480  3.142989e-02
13136.500  2.754567e-02
13136.520  2.443811e-02
13136.540  2.196362e-02
13136.560  1.997283e-02
13136.580  1.819670e-02
13136.600  1.648533e-02
13136.620  1.496982e-02
13136.640  1.371056e-02
13136.660  1.265991e-02
13136.680  1.176742e-02
13136.700  1.099993e-02
13136.720  1.033580e-02
13136.740  9.760785e-03
13136.760  9.266811e-03
13136.780  8.853266e-03
13136.800  8.530493e-03
13136.820  8.312884e-03
13136.840  8.149960e-03
13136.860  7.877253e-03
13136.880  7.475406e-03
13136.900  7.102511e-03
13136.920  6.815818e-03
13136.940  6.594613e-03
13136.960  6.417746e-03
13136.980  6.273934e-03
13137.000  6.157685e-03
13137.020  6.063098e-03
13137.040  5.997025e-03
13137.060  5.957813e-03
13137.080  5.950330e-03
13137.100  5.984673e-03
13137.120  6.081363e-03
13137.140  6.283327e-03
13137.160  6.679627e-03
13137.180  7.407525e-03
13137.200  8.383033e-03
13137.220  8.779476e-03
13137.240  8.123871e-03
13137.260  7.284054e-03
13137.280  6.800223e-03
13137.300  6.611902e-03
13137.320  6.605275e-03
13137.340  6.735963e-03
13137.360  7.019720e-03
13137.380  7.533909e-03
13137.400  8.368334e-03
13137.420  9.261191e-03
13137.440  9.420869e-03
13137.460  8.862703e-03
13137.480  8.376307e-03
13137.500  8.207149e-03
13137.520  8.258259e-03
13137.540  8.439790e-03
13137.560  8.708928e-03
13137.580  9.046988e-03
13137.600  9.447237e-03
13137.620  9.909190e-03
13137.640  1.043616e-02
13137.660  1.103425e-02
13137.680  1.171206e-02
13137.700  1.248067e-02
13137.720  1.335407e-02
13137.740  1.434967e-02
13137.760  1.548912e-02
13137.780  1.679950e-02
13137.800  1.831484e-02
13137.820  2.007838e-02
13137.840  2.214558e-02
13137.860  2.458849e-02
13137.880  2.750199e-02
13137.900  3.101302e-02
13137.920  3.529436e-02
13137.940  4.058591e-02
13137.960  4.722844e-02
13137.980  5.572255e-02
13138.000  6.680776e-02
13138.020  8.164547e-02
13138.040  1.021101e-01
13138.060  1.313812e-01
13138.080  1.751589e-01
13138.100  2.443243e-01
13138.120  3.609868e-01
13138.140  5.711033e-01
13138.160  9.532588e-01
13138.180  1.511111e+00
13138.200  1.846651e+00
13138.220  1.537560e+00
13138.240  9.771361e-01
13138.260  5.848312e-01
13138.280  3.684264e-01
13138.300  2.485756e-01
13138.320  1.777537e-01
13138.340  1.330563e-01
13138.360  1.032395e-01
13138.380  8.243189e-02
13138.400  6.736775e-02
13138.420  5.612647e-02
13138.440  4.752062e-02
13138.460  4.079552e-02
13138.480  3.544088e-02
13138.500  3.110998e-02
13138.520  2.755895e-02
13138.540  2.461232e-02
13138.560  2.214132e-02
13138.580  2.004979e-02
13138.600  1.826478e-02
13138.620  1.673021e-02
13138.640  1.540248e-02
13138.660  1.424744e-02
13138.680  1.323821e-02
13138.700  1.235382e-02
13138.720  1.157847e-02
13138.740  1.090166e-02
13138.760  1.031987e-02
13138.780  9.840998e-03
13138.800  9.487773e-03
13138.820  9.254111e-03
13138.840  8.978069e-03
13138.860  8.491637e-03
13138.880  7.949393e-03
13138.900  7.511855e-03
13138.920  7.182557e-03
13138.940  6.939984e-03
13138.960  6.788156e-03
13138.980  6.742447e-03
13139.000  6.721323e-03
13139.020  6.513681e-03
13139.040  6.153899e-03
13139.060  5.842072e-03
13139.080  5.618199e-03
13139.100  5.451143e-03
13139.120  5.316157e-03
13139.140  5.207045e-03
13139.160  5.116353e-03
13139.180  5.041701e-03
13139.200  4.982259e-03
13139.220  4.938343e-03
13139.240  4.911460e-03
13139.260  4.904792e-03
13139.280  4.924221e-03
13139.300  4.980627e-03
13139.320  5.094917e-03
13139.340  5.309395e-03
13139.360  5.711798e-03
13139.380  6.454522e-03
13139.400  7.560760e-03
13139.420  8.294741e-03
13139.440  7.866127e-03
13139.460  7.088243e-03
13139.480  6.871415e-03
13139.500  7.358698e-03
13139.520  8.080511e-03
13139.540  7.926653e-03
13139.560  6.946719e-03
13139.580  6.127156e-03
13139.600  5.693069e-03
13139.620  5.493634e-03
13139.640  5.417035e-03
13139.660  5.409555e-03
13139.680  5.445988e-03
13139.700  5.513431e-03
13139.720  5.605590e-03
13139.740  5.719154e-03
13139.760  5.852579e-03
13139.780  6.005425e-03
13139.800  6.177971e-03
13139.820  6.371055e-03
13139.840  6.585981e-03
13139.860  6.824479e-03
13139.880  7.088708e-03
13139.900  7.381282e-03
13139.920  7.705324e-03
13139.940  8.064552e-03
13139.960  8.463314e-03
13139.980  8.906816e-03
13140.000  9.401217e-03
13140.020  9.953858e-03
13140.040  1.057353e-02
13140.060  1.127080e-02
13140.080  1.205851e-02
13140.100  1.295228e-02
13140.120  1.397136e-02
13140.140  1.513961e-02
13140.160  1.648691e-02
13140.180  1.805113e-02
13140.200  1.988049e-02
13140.220  2.203775e-02
13140.240  2.460530e-02
13140.260  2.769311e-02
13140.280  3.145044e-02
13140.300  3.608419e-02
13140.320  4.188731e-02
13140.340  4.928540e-02
13140.360  5.892131e-02
13140.380  7.177270e-02
13140.400  8.943227e-02
13140.420  1.145830e-01
13140.440  1.520117e-01
13140.460  2.108207e-01
13140.480  3.095069e-01
13140.500  4.871512e-01
13140.520  8.161950e-01
13140.540  1.330217e+00
13140.560  1.711428e+00
13140.580  1.489502e+00
13140.600  9.582812e-01
13140.620  5.678278e-01
13140.640  3.529420e-01
13140.660  2.356326e-01
13140.680  1.672478e-01
13140.700  1.245493e-01
13140.720  9.630340e-02
13140.740  7.672283e-02
13140.760  6.262421e-02
13140.780  5.215212e-02
13140.800  4.416793e-02
13140.820  3.795264e-02
13140.840  3.302282e-02
13140.860  2.905215e-02
13140.880  2.581311e-02
13140.900  2.314473e-02
13140.920  2.093358e-02
13140.940  1.910451e-02
13140.960  1.761967e-02
13140.980  1.646764e-02
13141.000  1.555537e-02
13141.020  1.461971e-02
13141.040  1.364737e-02
13141.060  1.284142e-02
13141.080  1.206849e-02
13141.100  1.121177e-02
13141.120  1.043488e-02
13141.140  9.810786e-03
13141.160  9.303466e-03
13141.180  8.876782e-03
13141.200  8.510135e-03
13141.220  8.191795e-03
13141.240  7.914501e-03
13141.260  7.673487e-03
13141.280  7.465608e-03
13141.300  7.289007e-03
13141.320  7.143087e-03
13141.340  7.028709e-03
13141.360  6.948801e-03
13141.380  6.909586e-03
13141.400  6.923086e-03
13141.420  7.012484e-03
13141.440  7.224238e-03
13141.460  7.656314e-03
13141.480  8.516277e-03
13141.500  1.013299e-02
13141.520  1.231494e-02
13141.540  1.312081e-02
13141.560  1.147142e-02
13141.580  9.388441e-03
13141.600  8.099971e-03
13141.620  7.435547e-03
13141.640  7.099436e-03
13141.660  6.935567e-03
13141.680  6.870757e-03
13141.700  6.869385e-03
13141.720  6.913133e-03
13141.740  6.992196e-03
13141.760  7.101263e-03
13141.780  7.237646e-03
13141.800  7.400196e-03
13141.820  7.588855e-03
13141.840  7.804355e-03
13141.860  8.048074e-03
13141.880  8.321970e-03
13141.900  8.628567e-03
13141.920  8.970983e-03
13141.940  9.352987e-03
13141.960  9.779087e-03
13141.980  1.025465e-02
13142.000  1.078606e-02
13142.020  1.138094e-02
13142.040  1.204837e-02
13142.060  1.279928e-02
13142.080  1.364686e-02
13142.100  1.460712e-02
13142.120  1.569963e-02
13142.140  1.694855e-02
13142.160  1.838389e-02
13142.180  2.004333e-02
13142.200  2.197466e-02
13142.220  2.423923e-02
13142.240  2.691679e-02
13142.260  3.011247e-02
13142.280  3.396717e-02
13142.300  3.867305e-02
13142.320  4.449755e-02
13142.340  5.182153e-02
13142.360  6.120664e-02
13142.380  7.348540e-02
13142.400  8.997150e-02
13142.420  1.127975e-01
13142.440  1.456060e-01
13142.460  1.949858e-01
13142.480  2.736556e-01
13142.500  4.078085e-01
13142.520  6.524995e-01
13142.540  1.100331e+00
13142.560  1.735967e+00
13142.580  2.058282e+00
13142.600  1.646605e+00
13142.620  1.020901e+00
13142.640  6.075075e-01
13142.660  3.836161e-01
13142.680  2.598727e-01
13142.700  1.865639e-01
13142.720  1.401425e-01
13142.740  1.090791e-01
13142.760  8.734349e-02
13142.780  7.157251e-02
13142.800  5.978268e-02
13142.820  5.074452e-02
13142.840  4.367480e-02
13142.860  3.804307e-02
13142.880  3.348861e-02
13142.900  2.975798e-02
13142.920  2.666981e-02
13142.940  2.409321e-02
13142.960  2.193513e-02
13142.980  2.013536e-02
13143.000  1.866884e-02
13143.020  1.753550e-02
13143.040  1.664933e-02
13143.060  1.577471e-02
13143.080  1.485080e-02
13143.100  1.383913e-02
13143.120  1.277511e-02
13143.140  1.186063e-02
13143.160  1.113263e-02
13143.180  1.053744e-02
13143.200  1.003438e-02
13143.220  9.601148e-03
13143.240  9.225307e-03
13143.260  8.899623e-03
13143.280  8.620168e-03
13143.300  8.385896e-03
13143.320  8.199145e-03
13143.340  8.067540e-03
13143.360  8.008610e-03
13143.380  8.060807e-03
13143.400  8.309128e-03
13143.420  8.919219e-03
13143.440  9.984076e-03
13143.460  1.080183e-02
13143.480  1.042456e-02
13143.500  9.734957e-03
13143.520  9.822783e-03
13143.540  1.059652e-02
13143.560  1.082213e-02
13143.580  9.773025e-03
13143.600  8.532282e-03
13143.620  7.765911e-03
13143.640  7.367022e-03
13143.660  7.166934e-03
13143.680  7.076575e-03
13143.700  7.053753e-03
13143.720  7.077767e-03
13143.740  7.138027e-03
13143.760  7.229045e-03
13143.780  7.348128e-03
13143.800  7.494294e-03
13143.820  7.667653e-03
13143.840  7.869157e-03
13143.860  8.100452e-03
13143.880  8.363816e-03
13143.900  8.662173e-03
13143.920  8.999133e-03
13143.940  9.379078e-03
13143.960  9.807290e-03
13143.980  1.029011e-02
13144.000  1.083518e-02
13144.020  1.145169e-02
13144.040  1.215079e-02
13144.060  1.294605e-02
13144.080  1.385409e-02
13144.100  1.489548e-02
13144.120  1.609581e-02
13144.140  1.748728e-02
13144.160  1.911082e-02
13144.180  2.101906e-02
13144.200  2.328057e-02
13144.220  2.598598e-02
13144.240  2.925705e-02
13144.260  3.326033e-02
13144.280  3.822841e-02
13144.300  4.449378e-02
13144.320  5.254906e-02
13144.340  6.312808e-02
13144.360  7.739625e-02
13144.380  9.725974e-02
13144.400  1.260051e-01
13144.420  1.696458e-01
13144.440  2.399572e-01
13144.460  3.615845e-01
13144.480  5.868257e-01
13144.500  9.996242e-01
13144.520  1.554138e+00
13144.540  1.755625e+00
13144.560  1.331005e+00
13144.580  8.032265e-01
13144.600  4.768918e-01
13144.620  3.030114e-01
13144.640  2.067403e-01
13144.660  1.493774e-01
13144.680  1.128405e-01
13144.700  8.826635e-02
13144.720  7.099759e-02
13144.740  5.842325e-02
13144.760  4.899258e-02
13144.780  4.175342e-02
13144.800  3.608012e-02
13144.820  3.155995e-02
13144.840  2.791229e-02
13144.860  2.494680e-02
13144.880  2.254202e-02
13144.900  2.062270e-02
13144.920  1.905503e-02
13144.940  1.755710e-02
13144.960  1.606574e-02
13144.980  1.477444e-02
13145.000  1.373700e-02
13145.020  1.292557e-02
13145.040  1.233765e-02
13145.060  1.192581e-02
13145.080  1.142760e-02
13145.100  1.070224e-02
13145.120  1.000519e-02
13145.140  9.472197e-03
13145.160  9.075010e-03
13145.180  8.784624e-03
13145.200  8.602684e-03
13145.220  8.567535e-03
13145.240  8.778541e-03
13145.260  9.396360e-03
13145.280  1.028963e-02
13145.300  1.043519e-02
13145.320  9.421882e-03
13145.340  8.333913e-03
13145.360  7.688130e-03
13145.380  7.379114e-03
13145.400  7.300307e-03
13145.420  7.453843e-03
13145.440  7.959619e-03
13145.460  8.990880e-03
13145.480  1.012977e-02
13145.500  9.994531e-03
13145.520  8.706678e-03
13145.540  7.618184e-03
13145.560  7.024406e-03
13145.580  6.724406e-03
13145.600  6.574579e-03
13145.620  6.507468e-03
13145.640  6.491666e-03
13145.660  6.511666e-03
13145.680  6.559395e-03
13145.700  6.630548e-03
13145.720  6.722874e-03
13145.740  6.835374e-03
13145.760  6.967823e-03
13145.780  7.120577e-03
13145.800  7.294437e-03
13145.820  7.490597e-03
13145.840  7.710619e-03
13145.860  7.956436e-03
13145.880  8.230383e-03
13145.900  8.535238e-03
13145.920  8.874281e-03
13145.940  9.251379e-03
13145.960  9.671085e-03
13145.980  1.013877e-02
13146.000  1.066080e-02
13146.020  1.124471e-02
13146.040  1.189951e-02
13146.060  1.263602e-02
13146.080  1.346727e-02
13146.100  1.440909e-02
13146.120  1.548088e-02
13146.140  1.670656e-02
13146.160  1.811591e-02
13146.180  1.974636e-02
13146.200  2.164547e-02
13146.220  2.387441e-02
13146.240  2.651285e-02
13146.260  2.966610e-02
13146.280  3.347568e-02
13146.300  3.813518e-02
13146.320  4.391506e-02
13146.340  5.120202e-02
13146.360  6.056929e-02
13146.380  7.287122e-02
13146.400  8.946541e-02
13146.420  1.125741e-01
13146.440  1.460319e-01
13146.460  1.968604e-01
13146.480  2.788177e-01
13146.500  4.207275e-01
13146.520  6.837158e-01
13146.540  1.164874e+00
13146.560  1.805461e+00
13146.580  2.027152e+00
13146.600  1.528955e+00
13146.620  9.212364e-01
13146.640  5.473660e-01
13146.660  3.482572e-01
13146.680  2.380076e-01
13146.700  1.723911e-01
13146.720  1.305891e-01
13146.740  1.022445e-01
13146.760  8.217148e-02
13146.780  6.756745e-02
13146.800  5.665405e-02
13146.820  4.830301e-02
13146.840  4.177719e-02
13146.860  3.659528e-02
13146.880  3.243376e-02
13146.900  2.907743e-02
13146.920  2.639614e-02
13146.940  2.432137e-02
13146.960  2.273119e-02
13146.980  2.138973e-02
13147.000  2.041438e-02
13147.020  2.003898e-02
13147.040  1.938679e-02
13147.060  1.759557e-02
13147.080  1.564233e-02
13147.100  1.422791e-02
13147.120  1.323960e-02
13147.140  1.250175e-02
13147.160  1.192405e-02
13147.180  1.146500e-02
13147.200  1.110749e-02
13147.220  1.085102e-02
13147.240  1.071443e-02
13147.260  1.075139e-02
13147.280  1.108462e-02
13147.300  1.189884e-02
13147.320  1.298999e-02
13147.340  1.313693e-02
13147.360  1.199583e-02
13147.380  1.083685e-02
13147.400  1.017514e-02
13147.420  9.857196e-03
13147.440  9.728406e-03
13147.460  9.713072e-03
13147.480  9.776884e-03
13147.500  9.904278e-03
13147.520  1.008870e-02
13147.540  1.032844e-02
13147.560  1.062482e-02
13147.580  1.098143e-02
13147.600  1.140375e-02
13147.620  1.189924e-02
13147.640  1.247751e-02
13147.660  1.315068e-02
13147.680  1.393400e-02
13147.700  1.484655e-02
13147.720  1.591234e-02
13147.740  1.716155e-02
13147.760  1.863290e-02
13147.780  2.037706e-02
13147.800  2.246041e-02
13147.820  2.497083e-02
13147.840  2.802707e-02
13147.860  3.179263e-02
13147.880  3.649756e-02
13147.900  4.247338e-02
13147.920  5.021611e-02
13147.940  6.047240e-02
13147.960  7.444358e-02
13147.980  9.412515e-02
13148.000  1.230225e-01
13148.020  1.676958e-01
13148.040  2.413335e-01
13148.060  3.722310e-01
13148.080  6.199300e-01
13148.100  1.061052e+00
13148.120  1.552369e+00
13148.140  1.556157e+00
13148.160  1.067073e+00
13148.180  6.236881e-01
13148.200  3.741294e-01
13148.220  2.422811e-01
13148.240  1.681604e-01
13148.260  1.232197e-01
13148.280  9.416040e-02
13148.300  7.437444e-02
13148.320  6.033627e-02
13148.340  5.004578e-02
13148.360  4.231175e-02
13148.380  3.641612e-02
13148.400  3.186952e-02
13148.420  2.818465e-02
13148.440  2.496176e-02
13148.460  2.219707e-02
13148.480  1.993213e-02
13148.500  1.807546e-02
13148.520  1.653114e-02
13148.540  1.523487e-02
13148.560  1.414599e-02
13148.580  1.324217e-02
13148.600  1.252148e-02
13148.620  1.201538e-02
13148.640  1.181850e-02
13148.660  1.208079e-02
13148.680  1.260065e-02
13148.700  1.232947e-02
13148.720  1.110076e-02
13148.740  1.003577e-02
13148.760  9.441240e-03
13148.780  8.898495e-03
13148.800  8.247313e-03
13148.820  7.701086e-03
13148.840  7.312741e-03
13148.860  7.028290e-03
13148.880  6.808903e-03
13148.900  6.636178e-03
13148.920  6.502550e-03
13148.940  6.407017e-03
13148.960  6.354761e-03
13148.980  6.360337e-03
13149.000  6.457020e-03
13149.020  6.720279e-03
13149.040  7.310878e-03
13149.060  8.404320e-03
13149.080  9.469161e-03
13149.100  9.150173e-03
13149.120  7.864057e-03
13149.140  6.884336e-03
13149.160  6.367443e-03
13149.180  6.106543e-03
13149.200  5.974364e-03
13149.220  5.912875e-03
13149.240  5.895175e-03
13149.260  5.907957e-03
13149.280  5.944267e-03
13149.300  6.000367e-03
13149.320  6.074277e-03
13149.340  6.165082e-03
13149.360  6.272521e-03
13149.380  6.396821e-03
13149.400  6.538575e-03
13149.420  6.698697e-03
13149.440  6.878396e-03
13149.460  7.079175e-03
13149.480  7.302853e-03
13149.500  7.551592e-03
13149.520  7.827940e-03
13149.540  8.134897e-03
13149.560  8.475984e-03
13149.580  8.855344e-03
13149.600  9.277859e-03
13149.620  9.749306e-03
13149.640  1.027655e-02
13149.660  1.086778e-02
13149.680  1.153283e-02
13149.700  1.228360e-02
13149.720  1.313454e-02
13149.740  1.410337e-02
13149.760  1.521202e-02
13149.780  1.648782e-02
13149.800  1.796523e-02
13149.820  1.968818e-02
13149.840  2.171332e-02
13149.860  2.411477e-02
13149.880  2.699101e-02
13149.900  3.047516e-02
13149.920  3.475089e-02
13149.940  4.007770e-02
13149.960  4.683288e-02
13149.980  5.558751e-02
13150.000  6.719302e-02
13150.020  8.289225e-02
13150.040  1.046352e-01
13150.060  1.362647e-01
13150.080  1.850845e-01
13150.100  2.653173e-01
13150.120  4.072568e-01
13150.140  6.752124e-01
13150.160  1.158453e+00
13150.180  1.726901e+00
13150.200  1.782491e+00
13150.220  1.247979e+00
13150.240  7.335914e-01
13150.260  4.396221e-01
13150.280  2.836042e-01
13150.300  1.958569e-01
13150.320  1.429534e-01
13150.340  1.089801e-01
13150.360  8.598553e-02
13150.380  6.975473e-02
13150.400  5.791364e-02
13150.420  4.905558e-02
13150.440  4.233403e-02
13150.460  3.717893e-02
13150.480  3.303933e-02
13150.500  2.944949e-02
13150.520  2.639391e-02
13150.540  2.391831e-02
13150.560  2.191889e-02
13150.580  2.028696e-02
13150.600  1.894991e-02
13150.620  1.786225e-02
13150.640  1.699972e-02
13150.660  1.636190e-02
13150.680  1.598749e-02
13150.700  1.598841e-02
13150.720  1.652991e-02
13150.740  1.732981e-02
13150.760  1.717488e-02
13150.780  1.596570e-02
13150.800  1.492003e-02
13150.820  1.440203e-02
13150.840  1.424512e-02
13150.860  1.431677e-02
13150.880  1.455948e-02
13150.900  1.495377e-02
13150.920  1.549917e-02
13150.940  1.620690e-02
13150.960  1.709764e-02
13150.980  1.820181e-02
13151.000  1.956143e-02
13151.020  2.123354e-02
13151.040  2.329570e-02
13151.060  2.585442e-02
13151.080  2.905825e-02
13151.100  3.311856e-02
13151.120  3.834626e-02
13151.140  4.520035e-02
13151.160  5.440146e-02
13151.180  6.711237e-02
13151.200  8.530665e-02
13151.220  1.125326e-01
13151.240  1.556191e-01
13151.260  2.287351e-01
13151.280  3.630254e-01
13151.300  6.211733e-01
13151.320  1.047520e+00
13151.340  1.382746e+00
13151.360  1.195699e+00
13151.380  7.465863e-01
13151.400  4.306850e-01
13151.420  2.638373e-01
13151.440  1.750480e-01
13151.460  1.240405e-01
13151.480  9.249208e-02
13151.500  7.179990e-02
13151.520  5.760327e-02
13151.540  4.740108e-02
13151.560  3.965399e-02
13151.580  3.365309e-02
13151.600  2.902062e-02
13151.620  2.540891e-02
13151.640  2.257142e-02
13151.660  2.037177e-02
13151.680  1.878386e-02
13151.700  1.786204e-02
13151.720  1.733321e-02
13151.740  1.618356e-02
13151.760  1.429194e-02
13151.780  1.261182e-02
13151.800  1.140078e-02
13151.820  1.049534e-02
13151.840  9.771825e-03
13151.860  9.168369e-03
13151.880  8.652441e-03
13151.900  8.204936e-03
13151.920  7.813565e-03
13151.940  7.470010e-03
13151.960  7.168709e-03
13151.980  6.906589e-03
13152.000  6.683683e-03
13152.020  6.505545e-03
13152.040  6.389296e-03
13152.060  6.369845e-03
13152.080  6.446226e-03
13152.100  6.419038e-03
13152.120  6.135618e-03
13152.140  5.819524e-03
13152.160  5.612606e-03
13152.180  5.494620e-03
13152.200  5.439980e-03
13152.220  5.447725e-03
13152.240  5.542806e-03
13152.260  5.793998e-03
13152.280  6.353129e-03
13152.300  7.369974e-03
13152.320  8.273053e-03
13152.340  7.858541e-03
13152.360  6.697668e-03
13152.380  5.878519e-03
13152.400  5.458728e-03
13152.420  5.249266e-03
13152.440  5.144496e-03
13152.460  5.097267e-03
13152.480  5.085797e-03
13152.500  5.099308e-03
13152.520  5.132172e-03
13152.540  5.181368e-03
13152.560  5.245313e-03
13152.580  5.323292e-03
13152.600  5.415133e-03
13152.620  5.521069e-03
13152.640  5.641642e-03
13152.660  5.777669e-03
13152.680  5.930225e-03
13152.700  6.100649e-03
13152.720  6.290574e-03
13152.740  6.501957e-03
13152.760  6.737154e-03
13152.780  6.998996e-03
13152.800  7.290941e-03
13152.820  7.617288e-03
13152.840  7.983576e-03
13152.860  8.397357e-03
13152.880  8.869917e-03
13152.900  9.420314e-03
13152.920  1.008228e-02
13152.940  1.088800e-02
13152.960  1.175145e-02
13152.980  1.251821e-02
13153.000  1.332668e-02
13153.020  1.436864e-02
13153.040  1.570758e-02
13153.060  1.743284e-02
13153.080  1.972494e-02
13153.100  2.259816e-02
13153.120  2.528737e-02
13153.140  2.749370e-02
13153.160  3.031636e-02
13153.180  3.438655e-02
13153.200  3.990777e-02
13153.220  4.724972e-02
13153.240  5.711389e-02
13153.260  7.068986e-02
13153.280  9.002999e-02
13153.300  1.188345e-01
13153.320  1.641940e-01
13153.340  2.408282e-01
13153.360  3.814111e-01
13153.380  6.548257e-01
13153.400  1.127877e+00
13153.420  1.550442e+00
13153.440  1.388076e+00
13153.460  8.732452e-01
13153.480  4.985002e-01
13153.500  3.019740e-01
13153.520  1.989799e-01
13153.540  1.406132e-01
13153.560  1.049309e-01
13153.580  8.178388e-02
13153.600  6.609080e-02
13153.620  5.496262e-02
13153.640  4.663623e-02
13153.660  4.031776e-02
13153.680  3.558387e-02
13153.700  3.204492e-02
13153.720  2.943268e-02
13153.740  2.760943e-02
13153.760  2.657037e-02
13153.780  2.639548e-02
13153.800  2.670562e-02
13153.820  2.633579e-02
13153.840  2.543964e-02
13153.860  2.513694e-02
13153.880  2.565794e-02
13153.900  2.690332e-02
13153.920  2.887808e-02
13153.940  3.170859e-02
13153.960  3.564391e-02
13153.980  4.108822e-02
13154.000  4.870898e-02
13154.020  5.962426e-02
13154.040  7.580332e-02
13154.060  1.009386e-01
13154.080  1.424949e-01
13154.100  2.167935e-01
13154.120  3.607117e-01
13154.140  6.369484e-01
13154.160  1.002487e+00
13154.180  1.080527e+00
13154.200  7.564612e-01
13154.220  4.318865e-01
13154.240  2.519571e-01
13154.260  1.604296e-01
13154.280  1.105619e-01
13154.300  8.087697e-02
13154.320  6.184939e-02
13154.340  4.908994e-02
13154.360  4.032975e-02
13154.380  3.432557e-02
13154.400  3.001884e-02
13154.420  2.605828e-02
13154.440  2.226139e-02
13154.460  1.922841e-02
13154.480  1.692802e-02
13154.500  1.512366e-02
13154.520  1.365991e-02
13154.540  1.244573e-02
13154.560  1.142368e-02
13154.580  1.055571e-02
13154.600  9.819381e-03
13154.620  9.210524e-03
13154.640  8.698658e-03
13154.660  8.172655e-03
13154.680  7.667664e-03
13154.700  7.245403e-03
13154.720  6.884706e-03
13154.740  6.567674e-03
13154.760  6.285831e-03
13154.780  6.034013e-03
13154.800  5.808473e-03
13154.820  5.606296e-03
13154.840  5.425169e-03
13154.860  5.263284e-03
13154.880  5.119318e-03
13154.900  4.992486e-03
13154.920  4.882730e-03
13154.940  4.791176e-03
13154.960  4.721253e-03
13154.980  4.681492e-03
13155.000  4.691879e-03
13155.020  4.785751e-03
13155.040  4.935613e-03
13155.060  4.943216e-03
13155.080  4.776619e-03
13155.100  4.660258e-03
13155.120  4.686493e-03
13155.140  4.890937e-03
13155.160  5.390336e-03
13155.180  6.277971e-03
13155.200  6.938434e-03
13155.220  6.441911e-03
13155.240  5.495330e-03
13155.260  4.894475e-03
13155.280  4.602725e-03
13155.300  4.466542e-03
13155.320  4.408541e-03
13155.340  4.395019e-03
13155.360  4.410784e-03
13155.380  4.448887e-03
13155.400  4.506668e-03
13155.420  4.584444e-03
13155.440  4.685875e-03
13155.460  4.820497e-03
13155.480  5.009504e-03
13155.500  5.281168e-03
13155.520  5.592061e-03
13155.540  5.825642e-03
13155.560  6.112257e-03
13155.580  6.708737e-03
13155.600  7.511723e-03
13155.620  7.748106e-03
13155.640  7.318837e-03
13155.660  6.996944e-03
13155.680  6.971300e-03
13155.700  7.125711e-03
13155.720  7.384453e-03
13155.740  7.717374e-03
13155.760  8.114733e-03
13155.780  8.576078e-03
13155.800  9.106082e-03
13155.820  9.713090e-03
13155.840  1.040880e-02
13155.860  1.120861e-02
13155.880  1.213229e-02
13155.900  1.320527e-02
13155.920  1.446043e-02
13155.940  1.594066e-02
13155.960  1.770274e-02
13155.980  1.982303e-02
13156.000  2.240622e-02
13156.020  2.559864e-02
13156.040  2.960802e-02
13156.060  3.473869e-02
13156.080  4.145085e-02
13156.100  5.048619e-02
13156.120  6.305876e-02
13156.140  8.127598e-02
13156.160  1.090442e-01
13156.180  1.541625e-01
13156.200  2.334564e-01
13156.220  3.843765e-01
13156.240  6.713112e-01
13156.260  1.062671e+00
13156.280  1.181738e+00
13156.300  8.592290e-01
13156.320  5.027653e-01
13156.340  2.982332e-01
13156.360  1.942464e-01
13156.380  1.389233e-01
13156.400  1.076842e-01
13156.420  8.974175e-02
13156.440  8.039617e-02
13156.460  7.770345e-02
13156.480  8.139871e-02
13156.500  9.237700e-02
13156.520  1.137301e-01
13156.540  1.553806e-01
13156.560  2.409396e-01
13156.580  4.175118e-01
13156.600  6.957614e-01
13156.620  8.294479e-01
13156.640  6.192182e-01
13156.660  3.543337e-01
13156.680  2.032721e-01
13156.700  1.285963e-01
13156.720  8.899749e-02
13156.740  6.530034e-02
13156.760  4.991152e-02
13156.780  3.959024e-02
13156.800  3.238480e-02
13156.820  2.713879e-02
13156.840  2.318561e-02
13156.860  2.012271e-02
13156.880  1.769763e-02
13156.900  1.574153e-02
13156.920  1.414183e-02
13156.940  1.282630e-02
13156.960  1.175585e-02
13156.980  1.085195e-02
13157.000  9.990591e-03
13157.020  9.229263e-03
13157.040  8.603952e-03
13157.060  8.099530e-03
13157.080  7.742107e-03
13157.100  7.481673e-03
13157.120  7.040545e-03
13157.140  6.526753e-03
13157.160  6.136424e-03
13157.180  5.830351e-03
13157.200  5.569683e-03
13157.220  5.340001e-03
13157.240  5.134842e-03
13157.260  4.950431e-03
13157.280  4.784156e-03
13157.300  4.634043e-03
13157.320  4.498525e-03
13157.340  4.376335e-03
13157.360  4.266446e-03
13157.380  4.168039e-03
13157.400  4.080488e-03
13157.420  4.003369e-03
13157.440  3.936477e-03
13157.460  3.879893e-03
13157.480  3.834091e-03
13157.500  3.800170e-03
13157.520  3.780304e-03
13157.540  3.778785e-03
13157.560  3.804456e-03
13157.580  3.876338e-03
13157.600  4.028917e-03
13157.620  4.266573e-03
13157.640  4.475635e-03
13157.660  4.693503e-03
13157.680  5.260331e-03
13157.700  6.303876e-03
13157.720  7.086907e-03
13157.740  6.815060e-03
13157.760  5.822733e-03
13157.780  4.901547e-03
13157.800  4.397492e-03
13157.820  4.168081e-03
13157.840  4.072070e-03
13157.860  4.044826e-03
13157.880  4.058270e-03
13157.900  4.099364e-03
13157.920  4.161709e-03
13157.940  4.242141e-03
13157.960  4.339250e-03
13157.980  4.452645e-03
13158.000  4.582649e-03
13158.020  4.730081e-03
13158.040  4.896206e-03
13158.060  5.082699e-03
13158.080  5.291658e-03
13158.100  5.525642e-03
13158.120  5.787738e-03
13158.140  6.081652e-03
13158.160  6.411831e-03
13158.180  6.783630e-03
13158.200  7.203515e-03
13158.220  7.679346e-03
13158.240  8.220738e-03
13158.260  8.839545e-03
13158.280  9.550510e-03
13158.300  1.037215e-02
13158.320  1.132796e-02
13158.340  1.244817e-02
13158.360  1.377212e-02
13158.380  1.535190e-02
13158.400  1.725760e-02
13158.420  1.958555e-02
13158.440  2.247106e-02
13158.460  2.610602e-02
13158.480  3.078097e-02
13158.500  3.693399e-02
13158.520  4.528409e-02
13158.540  5.704229e-02
13158.560  7.440407e-02
13158.580  1.016841e-01
13158.600  1.482044e-01
13158.620  2.354636e-01
13158.640  4.042573e-01
13158.660  6.489359e-01
13158.680  7.850231e-01
13158.700  8.017847e-01
13158.720  9.321437e-01
13158.740  9.846879e-01
13158.760  7.233773e-01
13158.780  4.222046e-01
13158.800  2.476217e-01
13158.820  1.587511e-01
13158.840  1.101611e-01
13158.860  8.056105e-02
13158.880  6.133137e-02
13158.900  4.834475e-02
13158.920  3.919211e-02
13158.940  3.249168e-02
13158.960  2.743325e-02
13158.980  2.351807e-02
13159.000  2.042821e-02
13159.020  1.794918e-02
13159.040  1.593693e-02
13159.060  1.429729e-02
13159.080  1.298740e-02
13159.100  1.205384e-02
13159.120  1.153070e-02
13159.140  1.077959e-02
13159.160  9.552211e-03
13159.180  8.567004e-03
13159.200  7.868264e-03
13159.220  7.314250e-03
13159.240  6.846915e-03
13159.260  6.442788e-03
13159.280  6.089600e-03
13159.300  5.779857e-03
13159.320  5.509026e-03
13159.340  5.275626e-03
13159.360  5.083889e-03
13159.380  4.954489e-03
13159.400  4.940700e-03
13159.420  4.986467e-03
13159.440  4.832933e-03
13159.460  4.686499e-03
13159.480  4.809129e-03
13159.500  5.073685e-03
13159.520  4.976995e-03
13159.540  4.505506e-03
13159.560  4.109050e-03
13159.580  3.882695e-03
13159.600  3.753269e-03
13159.620  3.673193e-03
13159.640  3.622481e-03
13159.660  3.592903e-03
13159.680  3.581250e-03
13159.700  3.587020e-03
13159.720  3.611893e-03
13159.740  3.660423e-03
13159.760  3.742564e-03
13159.780  3.880480e-03
13159.800  4.124141e-03
13159.820  4.557432e-03
13159.840  5.191831e-03
13159.860  5.697836e-03
13159.880  5.534601e-03
13159.900  5.055851e-03
13159.920  4.819734e-03
13159.940  4.820324e-03
13159.960  4.955405e-03
13159.980  5.179614e-03
13160.000  5.480562e-03
13160.020  5.861298e-03
13160.040  6.334474e-03
13160.060  6.921569e-03
13160.080  7.654841e-03
13160.100  8.581812e-03
13160.120  9.774032e-03
13160.140  1.133944e-02
13160.160  1.345198e-02
13160.180  1.640227e-02
13160.200  2.070728e-02
13160.220  2.733737e-02
13160.240  3.811601e-02
13160.260  5.685502e-02
13160.280  9.366190e-02
13160.300  1.715483e-01
13160.320  3.002499e-01
13160.340  3.621462e-01
13160.360  2.613743e-01
13160.380  1.433759e-01
13160.400  8.072159e-02
13160.420  5.120733e-02
13160.440  3.614376e-02
13160.460  2.775433e-02
13160.480  2.281753e-02
13160.500  1.987123e-02
13160.520  1.819658e-02
13160.540  1.742984e-02
13160.560  1.740245e-02
13160.580  1.806647e-02
13160.600  1.947568e-02
13160.620  2.179185e-02
13160.640  2.534260e-02
13160.660  3.073975e-02
13160.680  3.918067e-02
13160.700  5.316717e-02
13160.720  7.698194e-02
13160.740  1.166734e-01
13160.760  1.943246e-01
13160.780  3.552234e-01
13160.800  5.684730e-01
13160.820  5.843208e-01
13160.840  3.770525e-01
13160.860  2.038946e-01
13160.880  1.170367e-01
13160.900  7.461517e-02
13160.920  5.156288e-02
13160.940  3.778268e-02
13160.960  2.898850e-02
13160.980  2.303968e-02
13161.000  1.885373e-02
13161.020  1.581171e-02
13161.040  1.353542e-02
13161.060  1.179095e-02
13161.080  1.043022e-02
13161.100  9.353368e-03
13161.120  8.492661e-03
13161.140  7.800738e-03
13161.160  7.243966e-03
13161.180  6.798300e-03
13161.200  6.446654e-03
13161.220  6.173809e-03
13161.240  5.979161e-03
13161.260  5.855643e-03
13161.280  5.803619e-03
13161.300  5.828440e-03
13161.320  5.940335e-03
13161.340  6.149439e-03
13161.360  6.485286e-03
13161.380  7.025579e-03
13161.400  7.934945e-03
13161.420  9.405816e-03
13161.440  1.098157e-02
13161.460  1.245557e-02
13161.480  1.478084e-02
13161.500  1.898336e-02
13161.520  2.664735e-02
13161.540  4.151407e-02
13161.560  7.347719e-02
13161.580  1.397263e-01
13161.600  2.146723e-01
13161.620  1.954978e-01
13161.640  1.140529e-01
13161.660  6.064434e-02
13161.680  3.562989e-02
13161.700  2.339434e-02
13161.720  1.677415e-02
13161.740  1.285980e-02
13161.760  1.038582e-02
13161.780  8.755357e-03
13161.800  7.670537e-03
13161.820  6.987777e-03
13161.840  6.670863e-03
13161.860  6.867257e-03
13161.880  8.089307e-03
13161.900  1.052009e-02
13161.920  1.110456e-02
13161.940  8.510754e-03
13161.960  6.339158e-03
13161.980  5.374757e-03
13162.000  4.964760e-03
13162.020  4.768159e-03
13162.040  4.701885e-03
13162.060  4.735458e-03
13162.080  4.846181e-03
13162.100  5.025274e-03
13162.120  5.273408e-03
13162.140  5.597430e-03
13162.160  6.008600e-03
13162.180  6.524968e-03
13162.200  7.177504e-03
13162.220  8.001018e-03
13162.240  9.037999e-03
13162.260  1.040057e-02
13162.280  1.224583e-02
13162.300  1.460073e-02
13162.320  1.760710e-02
13162.340  2.197154e-02
13162.360  2.862333e-02
13162.380  3.910879e-02
13162.400  5.655383e-02
13162.420  8.887310e-02
13162.440  1.576156e-01
13162.460  3.013458e-01
13162.480  4.686184e-01
13162.500  4.560894e-01
13162.520  2.933918e-01
13162.540  1.608335e-01
13162.560  9.279218e-02
13162.580  5.945044e-02
13162.600  4.192909e-02
13162.620  3.273682e-02
13162.640  2.975415e-02
13162.660  3.172335e-02
13162.680  2.973699e-02
13162.700  2.126709e-02
13162.720  1.516388e-02
13162.740  1.217778e-02
13162.760  1.057946e-02
13162.780  9.649474e-03
13162.800  9.260315e-03
13162.820  9.404241e-03
13162.840  1.009950e-02
13162.860  1.164366e-02
13162.880  1.506099e-02
13162.900  2.289698e-02
13162.920  4.095287e-02
13162.940  6.832177e-02
13162.960  7.358913e-02
13162.980  5.725870e-02
13163.000  5.253064e-02
13163.020  4.519000e-02
13163.040  2.805217e-02
13163.060  1.646477e-02
13163.080  1.086432e-02
13163.100  7.956958e-03
13163.120  6.289645e-03
13163.140  5.211861e-03
13163.160  4.485490e-03
13163.180  3.984096e-03
13163.200  3.624756e-03
13163.220  3.355948e-03
13163.240  3.158829e-03
13163.260  3.012399e-03
13163.280  2.906150e-03
13163.300  2.833291e-03
13163.320  2.789614e-03
13163.340  2.772760e-03
13163.360  2.781868e-03
13163.380  2.817422e-03
13163.400  2.880846e-03
13163.420  2.973870e-03
13163.440  3.100685e-03
13163.460  3.268976e-03
13163.480  3.488319e-03
13163.500  3.771831e-03
13163.520  4.138878e-03
13163.540  4.619106e-03
13163.560  5.261082e-03
13163.580  6.146149e-03
13163.600  7.398925e-03
13163.620  9.096691e-03
13163.640  1.123832e-02
13163.660  1.438808e-02
13163.680  1.969224e-02
13163.700  2.914471e-02
13163.720  4.774390e-02
13163.740  8.823335e-02
13163.760  1.669886e-01
13163.780  2.337132e-01
13163.800  1.882952e-01
13163.820  1.030576e-01
13163.840  5.443182e-02
13163.860  3.218012e-02
13163.880  2.115029e-02
13163.900  1.502803e-02
13163.920  1.131070e-02
13163.940  8.897686e-03
13163.960  7.251964e-03
13163.980  6.089119e-03
13164.000  5.249774e-03
13164.020  4.643021e-03
13164.040  4.224276e-03
13164.060  3.991940e-03
13164.080  3.964001e-03
13164.100  4.049287e-03
13164.120  4.257484e-03
13164.140  5.251261e-03
13164.160  7.861321e-03
13164.180  9.652750e-03
13164.200  7.199012e-03
13164.220  4.482630e-03
13164.240  3.272167e-03
13164.260  2.767334e-03
13164.280  2.530148e-03
13164.300  2.416504e-03
13164.320  2.375030e-03
13164.340  2.385415e-03
13164.360  2.440765e-03
13164.380  2.542059e-03
13164.400  2.697444e-03
13164.420  2.926082e-03
13164.440  3.267908e-03
13164.460  3.759895e-03
13164.480  4.313394e-03
13164.500  4.898246e-03
13164.520  5.782428e-03
13164.540  7.216893e-03
13164.560  9.524743e-03
13164.580  1.343202e-02
13164.600  2.077875e-02
13164.620  3.635699e-02
13164.640  7.050787e-02
13164.660  1.196726e-01
13164.680  1.238640e-01
13164.700  7.613710e-02
13164.720  3.936587e-02
13164.740  2.245773e-02
13164.760  1.468025e-02
13164.780  1.058854e-02
13164.800  8.287031e-03
13164.820  7.096106e-03
13164.840  6.757319e-03
13164.860  7.448621e-03
13164.880  1.017332e-02
13164.900  1.596421e-02
13164.920  1.907904e-02
13164.940  1.400619e-02
13164.960  8.724534e-03
13164.980  6.343057e-03
13165.000  5.557406e-03
13165.020  5.620074e-03
13165.040  6.293707e-03
13165.060  7.573266e-03
13165.080  1.003733e-02
13165.100  1.522095e-02
13165.120  2.692435e-02
13165.140  5.080360e-02
13165.160  7.271037e-02
13165.180  6.147535e-02
13165.200  4.196367e-02
13165.220  4.053713e-02
13165.240  4.375374e-02
13165.260  3.140578e-02
13165.280  1.705510e-02
13165.300  9.820576e-03
13165.320  6.477128e-03
13165.340  4.706377e-03
13165.360  3.644743e-03
13165.380  2.949790e-03
13165.400  2.465266e-03
13165.420  2.111362e-03
13165.440  1.843280e-03
13165.460  1.634266e-03
13165.480  1.467397e-03
13165.500  1.331590e-03
13165.520  1.219185e-03
13165.540  1.124812e-03
13165.560  1.044593e-03
13165.580  9.718137e-04
13165.600  9.120152e-04
13165.620  8.596901e-04
13165.640  8.135523e-04
13165.660  7.725882e-04
13165.680  7.359893e-04
13165.700  7.031036e-04
13165.720  6.734004e-04
13165.740  6.464432e-04
13165.760  6.218704e-04
13165.780  5.993803e-04
13165.800  5.787189e-04
13165.820  5.596713e-04
13165.840  5.420545e-04
13165.860  5.257117e-04
13165.880  5.105079e-04
13165.900  4.963263e-04
13165.920  4.830654e-04
13165.940  4.706365e-04
13165.960  4.589619e-04
13165.980  4.479730e-04
